sub_id,group,decision,trial,trial_type,RT(s),Stimulus
1,1,1,1,moral,14.28,"1.小王开车下班回家的路上邻居小孩因腹痛倒地,小王应该不应该送小回家或者去医院?                             应该(1)       不应该(2)  "
1,1,2,1,common,4.923,2.小李刚刚吃过了早饭，请问小李没吃饭，对吗？                    对（1 ）  不对（2 ）
1,1,1,1,legal,14.309,3.陈某家中失火，邻居家10岁的女孩刘某呼叫邻居救火，并取自家衣物参与扑火。在救火过程中，刘某手部烧伤，花去医疗费200元，衣物损失100元。“陈某应偿付刘某300元，而非200元” 这个说法对不对？             对（1 ） 不对（2 ）
1,1,1,2,moral,2.272,4.在公车上遇到怀孕9个月的孕妇，年轻人应不应该让座？              应该（ 1） 不应该（2  )
1,1,2,2,common,2.871,5.小明刚刚跑步去了。请问小明没有脚，对吗？                       对（1 ）  不对（ 2）
1,1,2,2,legal,22.821,6.乙替甲还了800借款，并对甲说：“这800元算给你了。”甲称将来一定还给乙。事后甲还了乙500元。后二人交恶，乙要求甲归还300元，甲认为乙已将800元给了自己于是要求乙退回500元。“甲无需再还300元”，这个说法对不对？  对（1 ） 不对（2 ）
1,1,1,3,moral,3.14, 7.小王捡到他人遗失的钱包后归还给失主，请问小王做的对不对？     对（1 ） 不对（ 2）
1,1,2,3,common,8.855,8.张三高度近视达900度，现在正在打乒乓球。请问张三没有戴眼镜对吗？  对（ 1） 不对（2 ）
1,1,1,3,legal,15.001,9.完全不能辨认自己行为的精神病人甲将自己的手表丢向路边，被乙拾得。 “乙应将手表还给甲” ，这个说法对不对？  对（1 ） 不对（2 ）
1,1,2,4,common,4.751,11.李四是土生土长的东北人，正在用家乡话给家人打电话。请问李四是不是在说闽南话？                   是（1 ） 不是（2 ）
1,1,1,4,legal,22.801,12.甲在乙承包的水库游泳，乙的雇工丙、丁误以为甲在偷鱼，于是将甲打伤。 “只能由乙承担赔偿责任，丙丁无需承担” ，这个说法对不对？   对（ 1） 不对（2 ）
1,1,1,4,moral,3.745,13.张三非常富有，看到汶川地震死了很多人，于是向灾区捐了款。请问张三的做法对不对？                   对（ 1） 不对（2 ）
1,1,1,5,common,8.012,14.小花、小明、小张三人进行100跑步决赛，小花跑了第三，那么小明不是第一名就是第二名，这个说法对不对？  对（1 ） 不对（2 ）
1,1,1,5,legal,14.8,15.甲将300本书送给乙，并约定乙不得转让给第三人，否则甲有权收回书。其后甲向乙交付了300本书。 “甲与乙的赠与合同有效，乙取得了书的所有权” ，这个说法对不对？     对（ 1） 不对（2 ）
1,1,1,5,moral,9.142,16.李四家住农村，在路边看到流浪猫很可怜，于是把猫带回家喂养。请问李四的做法对不对？                 对（ 1） 不对（2 ）
1,1,1,6,common,11.843,17.小张昨天对小明承诺：“如果明天天不下雨，我就带你去听音乐会。”今天他们两都去听音乐会了，请问今天没有下雨，这个说法对不对？    对（1 ） 不对（2 ）
1,1,2,6,legal,21.563,18.周某从某4S店买了1辆车，约定试用10天，试用期满后办理过户手续。试用期间，周某违反交规将李某撞成重伤。现周某无力赔偿。李某能否要求4S店赔偿？能(  1 )  不能(2   )
1,1,1,6,moral,12.213,19.小李看到好朋友王五和黑社会接触，并参与打群架，于是就劝阻王五继续与黑社会接触。请问小李的做法对不对？  对（1 ） 不对（2 ）
1,1,1,7,legal,14.015,21. 潘某与刘某相约出游，潘某在长江边拾得一块奇石，爱不释手，拟带回家。刘某说，《物权法》规定河流属于国家所有，这一行为可能属于侵占国家财产。“潘某可以取得奇石的所有权。”这个说法对不对 ？          对（1 ） 不对（2 ）
1,1,1,7,moral,3.773,22.小明看到歹徒行凶抢劫，于是打电话报警。请问小明的做法对不对？   对（ 1） 不对（2 ）
1,1,1,7,common,9.567,23.张三、李四、王五三个人比体重，三人体重各不相同，已知王五是最轻的，那么张三与李四两人有一个是体重最重的，这个说法对不对？   对（1 ） 不对（ 2）
1,1,2,8,legal,12.324,24.刘某种植西瓜，收获季节病故。好友刁某联系不上刘某家人，便为刘某办理后事，并将西瓜卖出。事后刁某认为自己应得劳务费5000元。“刁某可以请求刘某家人支付劳务费5000元。”  可以（1 ） 不可以（2 ）
1,1,1,8,moral,5,25.小张是游泳健将，看到公园里有人失足跌下湖里，于是赶紧下水救人，请问小张的做法对不对？           对（1 ）  不对（2 ）
1,1,1,8,common,6.223,26.小刘与小张、小李三人比赛唱歌，小刘得了第一名，请问小刘赢了小张，这个说法对不对？           对（ 1） 不对（2 ）
1,1,1,9,legal,14.292,27.甲忘带钥匙，邻居乙建议甲从自家阳台爬回家，并提供绳索以备不测。甲在攀越时绳索断裂，坠地受伤。“法院能否酌情让乙承担部分赔偿责任”   能（1 ） 不能（2 ）
1,1,2,9,moral,8.807,28.小明看到好朋友李四最近与王五走得很近，于是嫉妒王五，就在背后说王五的坏话。请问小明的做法应不应该？  应该（1 ） 不应该（2 ）
1,1,1,9,common,9.995,29.假设小明家热水沸腾的温度是100摄氏度，现在小明正在烧水，水沸腾了，请问此时水温度达到100摄氏度，这个说法对不对？              对（1 ）  不对（2 ）
1,1,2,10,legal,10.286,30.甲与乙结婚3年后，乙提出甲婚前谎称是海归博士且有车有房，乙婚后发现上当受骗并向法院请求确认婚姻无效。“乙的理由可以成立。”        可以（ 1） 不可以（2 ）
2,1,1,1,moral,17.584,"1.小王开车下班回家的路上邻居小孩因腹痛倒地,小王应该不应该送小回家或者去医院?                             应该(1)       不应该(2)  "
2,1,2,1,common,16.356,2.小李刚刚吃过了早饭，请问小李没吃饭，对吗？                    对（1 ）  不对（2 ）
2,1,1,1,legal,24.195,3.陈某家中失火，邻居家10岁的女孩刘某呼叫邻居救火，并取自家衣物参与扑火。在救火过程中，刘某手部烧伤，花去医疗费200元，衣物损失100元。“陈某应偿付刘某300元，而非200元” 这个说法对不对？             对（1 ） 不对（2 ）
2,1,1,2,moral,5.297,4.在公车上遇到怀孕9个月的孕妇，年轻人应不应该让座？              应该（ 1） 不应该（2  )
2,1,2,2,common,14.604,5.小明刚刚跑步去了。请问小明没有脚，对吗？                       对（1 ）  不对（ 2）
2,1,2,2,legal,28.555,6.乙替甲还了800借款，并对甲说：“这800元算给你了。”甲称将来一定还给乙。事后甲还了乙500元。后二人交恶，乙要求甲归还300元，甲认为乙已将800元给了自己于是要求乙退回500元。“甲无需再还300元”，这个说法对不对？  对（1 ） 不对（2 ）
2,1,1,3,moral,6.99, 7.小王捡到他人遗失的钱包后归还给失主，请问小王做的对不对？     对（1 ） 不对（ 2）
2,1,2,3,common,11.092,8.张三高度近视达900度，现在正在打乒乓球。请问张三没有戴眼镜对吗？  对（ 1） 不对（2 ）
2,1,1,3,legal,13.834,9.完全不能辨认自己行为的精神病人甲将自己的手表丢向路边，被乙拾得。 “乙应将手表还给甲” ，这个说法对不对？  对（1 ） 不对（2 ）
2,1,2,4,common,13.219,11.李四是土生土长的东北人，正在用家乡话给家人打电话。请问李四是不是在说闽南话？                   是（1 ） 不是（2 ）
2,1,1,4,legal,23.482,12.甲在乙承包的水库游泳，乙的雇工丙、丁误以为甲在偷鱼，于是将甲打伤。 “只能由乙承担赔偿责任，丙丁无需承担” ，这个说法对不对？   对（ 1） 不对（2 ）
2,1,1,4,moral,5.83,13.张三非常富有，看到汶川地震死了很多人，于是向灾区捐了款。请问张三的做法对不对？                   对（ 1） 不对（2 ）
2,1,1,5,common,20.706,14.小花、小明、小张三人进行100跑步决赛，小花跑了第三，那么小明不是第一名就是第二名，这个说法对不对？  对（1 ） 不对（2 ）
2,1,1,5,legal,22.135,15.甲将300本书送给乙，并约定乙不得转让给第三人，否则甲有权收回书。其后甲向乙交付了300本书。 “甲与乙的赠与合同有效，乙取得了书的所有权” ，这个说法对不对？     对（ 1） 不对（2 ）
2,1,1,5,moral,11.09,16.李四家住农村，在路边看到流浪猫很可怜，于是把猫带回家喂养。请问李四的做法对不对？                 对（ 1） 不对（2 ）
2,1,1,6,common,24.897,17.小张昨天对小明承诺：“如果明天天不下雨，我就带你去听音乐会。”今天他们两都去听音乐会了，请问今天没有下雨，这个说法对不对？    对（1 ） 不对（2 ）
2,1,2,6,legal,18.818,18.周某从某4S店买了1辆车，约定试用10天，试用期满后办理过户手续。试用期间，周某违反交规将李某撞成重伤。现周某无力赔偿。李某能否要求4S店赔偿？能(  1 )  不能(2   )
2,1,1,6,moral,7.468,19.小李看到好朋友王五和黑社会接触，并参与打群架，于是就劝阻王五继续与黑社会接触。请问小李的做法对不对？  对（1 ） 不对（2 ）
2,1,1,7,legal,30.043,21. 潘某与刘某相约出游，潘某在长江边拾得一块奇石，爱不释手，拟带回家。刘某说，《物权法》规定河流属于国家所有，这一行为可能属于侵占国家财产。“潘某可以取得奇石的所有权。”这个说法对不对 ？          对（1 ） 不对（2 ）
2,1,1,7,moral,4.731,22.小明看到歹徒行凶抢劫，于是打电话报警。请问小明的做法对不对？   对（ 1） 不对（2 ）
2,1,1,7,common,14.277,23.张三、李四、王五三个人比体重，三人体重各不相同，已知王五是最轻的，那么张三与李四两人有一个是体重最重的，这个说法对不对？   对（1 ） 不对（ 2）
2,1,2,8,legal,22.434,24.刘某种植西瓜，收获季节病故。好友刁某联系不上刘某家人，便为刘某办理后事，并将西瓜卖出。事后刁某认为自己应得劳务费5000元。“刁某可以请求刘某家人支付劳务费5000元。”  可以（1 ） 不可以（2 ）
2,1,1,8,moral,7.36,25.小张是游泳健将，看到公园里有人失足跌下湖里，于是赶紧下水救人，请问小张的做法对不对？           对（1 ）  不对（2 ）
2,1,1,8,common,19.079,26.小刘与小张、小李三人比赛唱歌，小刘得了第一名，请问小刘赢了小张，这个说法对不对？           对（ 1） 不对（2 ）
2,1,1,9,legal,12.023,27.甲忘带钥匙，邻居乙建议甲从自家阳台爬回家，并提供绳索以备不测。甲在攀越时绳索断裂，坠地受伤。“法院能否酌情让乙承担部分赔偿责任”   能（1 ） 不能（2 ）
2,1,2,9,moral,8.575,28.小明看到好朋友李四最近与王五走得很近，于是嫉妒王五，就在背后说王五的坏话。请问小明的做法应不应该？  应该（1 ） 不应该（2 ）
2,1,1,9,common,22.219,29.假设小明家热水沸腾的温度是100摄氏度，现在小明正在烧水，水沸腾了，请问此时水温度达到100摄氏度，这个说法对不对？              对（1 ）  不对（2 ）
2,1,2,10,legal,24.754,30.甲与乙结婚3年后，乙提出甲婚前谎称是海归博士且有车有房，乙婚后发现上当受骗并向法院请求确认婚姻无效。“乙的理由可以成立。”        可以（ 1） 不可以（2 ）
3,1,1,1,moral,8.168,"1.小王开车下班回家的路上邻居小孩因腹痛倒地,小王应该不应该送小回家或者去医院?                             应该(1)       不应该(2)  "
3,1,2,1,common,6.119,2.小李刚刚吃过了早饭，请问小李没吃饭，对吗？                    对（1 ）  不对（2 ）
3,1,1,1,legal,15.776,3.陈某家中失火，邻居家10岁的女孩刘某呼叫邻居救火，并取自家衣物参与扑火。在救火过程中，刘某手部烧伤，花去医疗费200元，衣物损失100元。“陈某应偿付刘某300元，而非200元” 这个说法对不对？             对（1 ） 不对（2 ）
3,1,1,2,moral,2.631,4.在公车上遇到怀孕9个月的孕妇，年轻人应不应该让座？              应该（ 1） 不应该（2  )
3,1,2,2,common,3.079,5.小明刚刚跑步去了。请问小明没有脚，对吗？                       对（1 ）  不对（ 2）
3,1,2,2,legal,16.388,6.乙替甲还了800借款，并对甲说：“这800元算给你了。”甲称将来一定还给乙。事后甲还了乙500元。后二人交恶，乙要求甲归还300元，甲认为乙已将800元给了自己于是要求乙退回500元。“甲无需再还300元”，这个说法对不对？  对（1 ） 不对（2 ）
3,1,1,3,moral,3.609, 7.小王捡到他人遗失的钱包后归还给失主，请问小王做的对不对？     对（1 ） 不对（ 2）
3,1,2,3,common,4.386,8.张三高度近视达900度，现在正在打乒乓球。请问张三没有戴眼镜对吗？  对（ 1） 不对（2 ）
3,1,1,3,legal,5.739,9.完全不能辨认自己行为的精神病人甲将自己的手表丢向路边，被乙拾得。 “乙应将手表还给甲” ，这个说法对不对？  对（1 ） 不对（2 ）
3,1,2,4,common,5.519,11.李四是土生土长的东北人，正在用家乡话给家人打电话。请问李四是不是在说闽南话？                   是（1 ） 不是（2 ）
3,1,1,4,legal,8.625,12.甲在乙承包的水库游泳，乙的雇工丙、丁误以为甲在偷鱼，于是将甲打伤。 “只能由乙承担赔偿责任，丙丁无需承担” ，这个说法对不对？   对（ 1） 不对（2 ）
3,1,1,4,moral,3.108,13.张三非常富有，看到汶川地震死了很多人，于是向灾区捐了款。请问张三的做法对不对？                   对（ 1） 不对（2 ）
3,1,1,5,common,5.425,14.小花、小明、小张三人进行100跑步决赛，小花跑了第三，那么小明不是第一名就是第二名，这个说法对不对？  对（1 ） 不对（2 ）
3,1,1,5,legal,14.359,15.甲将300本书送给乙，并约定乙不得转让给第三人，否则甲有权收回书。其后甲向乙交付了300本书。 “甲与乙的赠与合同有效，乙取得了书的所有权” ，这个说法对不对？     对（ 1） 不对（2 ）
3,1,1,5,moral,6.208,16.李四家住农村，在路边看到流浪猫很可怜，于是把猫带回家喂养。请问李四的做法对不对？                 对（ 1） 不对（2 ）
3,1,1,6,common,6.894,17.小张昨天对小明承诺：“如果明天天不下雨，我就带你去听音乐会。”今天他们两都去听音乐会了，请问今天没有下雨，这个说法对不对？    对（1 ） 不对（2 ）
3,1,2,6,legal,14.431,18.周某从某4S店买了1辆车，约定试用10天，试用期满后办理过户手续。试用期间，周某违反交规将李某撞成重伤。现周某无力赔偿。李某能否要求4S店赔偿？能(  1 )  不能(2   )
3,1,1,6,moral,6.908,19.小李看到好朋友王五和黑社会接触，并参与打群架，于是就劝阻王五继续与黑社会接触。请问小李的做法对不对？  对（1 ） 不对（2 ）
3,1,1,7,legal,11.99,21. 潘某与刘某相约出游，潘某在长江边拾得一块奇石，爱不释手，拟带回家。刘某说，《物权法》规定河流属于国家所有，这一行为可能属于侵占国家财产。“潘某可以取得奇石的所有权。”这个说法对不对 ？          对（1 ） 不对（2 ）
3,1,1,7,moral,2.919,22.小明看到歹徒行凶抢劫，于是打电话报警。请问小明的做法对不对？   对（ 1） 不对（2 ）
3,1,1,7,common,6.836,23.张三、李四、王五三个人比体重，三人体重各不相同，已知王五是最轻的，那么张三与李四两人有一个是体重最重的，这个说法对不对？   对（1 ） 不对（ 2）
3,1,2,8,legal,12.112,24.刘某种植西瓜，收获季节病故。好友刁某联系不上刘某家人，便为刘某办理后事，并将西瓜卖出。事后刁某认为自己应得劳务费5000元。“刁某可以请求刘某家人支付劳务费5000元。”  可以（1 ） 不可以（2 ）
3,1,1,8,moral,8.781,25.小张是游泳健将，看到公园里有人失足跌下湖里，于是赶紧下水救人，请问小张的做法对不对？           对（1 ）  不对（2 ）
3,1,1,8,common,6.81,26.小刘与小张、小李三人比赛唱歌，小刘得了第一名，请问小刘赢了小张，这个说法对不对？           对（ 1） 不对（2 ）
3,1,1,9,legal,5.639,27.甲忘带钥匙，邻居乙建议甲从自家阳台爬回家，并提供绳索以备不测。甲在攀越时绳索断裂，坠地受伤。“法院能否酌情让乙承担部分赔偿责任”   能（1 ） 不能（2 ）
3,1,2,9,moral,5.1,28.小明看到好朋友李四最近与王五走得很近，于是嫉妒王五，就在背后说王五的坏话。请问小明的做法应不应该？  应该（1 ） 不应该（2 ）
3,1,1,9,common,5.896,29.假设小明家热水沸腾的温度是100摄氏度，现在小明正在烧水，水沸腾了，请问此时水温度达到100摄氏度，这个说法对不对？              对（1 ）  不对（2 ）
3,1,2,10,legal,5.858,30.甲与乙结婚3年后，乙提出甲婚前谎称是海归博士且有车有房，乙婚后发现上当受骗并向法院请求确认婚姻无效。“乙的理由可以成立。”        可以（ 1） 不可以（2 ）
4,1,1,1,moral,8.193,"1.小王开车下班回家的路上邻居小孩因腹痛倒地,小王应该不应该送小回家或者去医院?                             应该(1)       不应该(2)  "
4,1,2,1,common,3.878,2.小李刚刚吃过了早饭，请问小李没吃饭，对吗？                    对（1 ）  不对（2 ）
4,1,1,1,legal,13.867,3.陈某家中失火，邻居家10岁的女孩刘某呼叫邻居救火，并取自家衣物参与扑火。在救火过程中，刘某手部烧伤，花去医疗费200元，衣物损失100元。“陈某应偿付刘某300元，而非200元” 这个说法对不对？             对（1 ） 不对（2 ）
4,1,1,2,moral,2.624,4.在公车上遇到怀孕9个月的孕妇，年轻人应不应该让座？              应该（ 1） 不应该（2  )
4,1,2,2,common,3.432,5.小明刚刚跑步去了。请问小明没有脚，对吗？                       对（1 ）  不对（ 2）
4,1,2,2,legal,28.808,6.乙替甲还了800借款，并对甲说：“这800元算给你了。”甲称将来一定还给乙。事后甲还了乙500元。后二人交恶，乙要求甲归还300元，甲认为乙已将800元给了自己于是要求乙退回500元。“甲无需再还300元”，这个说法对不对？  对（1 ） 不对（2 ）
4,1,1,3,moral,4.514, 7.小王捡到他人遗失的钱包后归还给失主，请问小王做的对不对？     对（1 ） 不对（ 2）
4,1,2,3,common,6.565,8.张三高度近视达900度，现在正在打乒乓球。请问张三没有戴眼镜对吗？  对（ 1） 不对（2 ）
4,1,1,3,legal,8.316,9.完全不能辨认自己行为的精神病人甲将自己的手表丢向路边，被乙拾得。 “乙应将手表还给甲” ，这个说法对不对？  对（1 ） 不对（2 ）
4,1,2,4,common,6.221,11.李四是土生土长的东北人，正在用家乡话给家人打电话。请问李四是不是在说闽南话？                   是（1 ） 不是（2 ）
4,1,1,4,legal,17.859,12.甲在乙承包的水库游泳，乙的雇工丙、丁误以为甲在偷鱼，于是将甲打伤。 “只能由乙承担赔偿责任，丙丁无需承担” ，这个说法对不对？   对（ 1） 不对（2 ）
4,1,1,4,moral,3.644,13.张三非常富有，看到汶川地震死了很多人，于是向灾区捐了款。请问张三的做法对不对？                   对（ 1） 不对（2 ）
4,1,1,5,common,14.907,14.小花、小明、小张三人进行100跑步决赛，小花跑了第三，那么小明不是第一名就是第二名，这个说法对不对？  对（1 ） 不对（2 ）
4,1,1,5,legal,19.662,15.甲将300本书送给乙，并约定乙不得转让给第三人，否则甲有权收回书。其后甲向乙交付了300本书。 “甲与乙的赠与合同有效，乙取得了书的所有权” ，这个说法对不对？     对（ 1） 不对（2 ）
4,1,1,5,moral,5.654,16.李四家住农村，在路边看到流浪猫很可怜，于是把猫带回家喂养。请问李四的做法对不对？                 对（ 1） 不对（2 ）
4,1,1,6,common,9.523,17.小张昨天对小明承诺：“如果明天天不下雨，我就带你去听音乐会。”今天他们两都去听音乐会了，请问今天没有下雨，这个说法对不对？    对（1 ） 不对（2 ）
4,1,2,6,legal,13.905,18.周某从某4S店买了1辆车，约定试用10天，试用期满后办理过户手续。试用期间，周某违反交规将李某撞成重伤。现周某无力赔偿。李某能否要求4S店赔偿？能(  1 )  不能(2   )
4,1,1,6,moral,4.733,19.小李看到好朋友王五和黑社会接触，并参与打群架，于是就劝阻王五继续与黑社会接触。请问小李的做法对不对？  对（1 ） 不对（2 ）
4,1,1,7,legal,26.879,21. 潘某与刘某相约出游，潘某在长江边拾得一块奇石，爱不释手，拟带回家。刘某说，《物权法》规定河流属于国家所有，这一行为可能属于侵占国家财产。“潘某可以取得奇石的所有权。”这个说法对不对 ？          对（1 ） 不对（2 ）
4,1,1,7,moral,2.831,22.小明看到歹徒行凶抢劫，于是打电话报警。请问小明的做法对不对？   对（ 1） 不对（2 ）
4,1,1,7,common,16.695,23.张三、李四、王五三个人比体重，三人体重各不相同，已知王五是最轻的，那么张三与李四两人有一个是体重最重的，这个说法对不对？   对（1 ） 不对（ 2）
4,1,2,8,legal,11.969,24.刘某种植西瓜，收获季节病故。好友刁某联系不上刘某家人，便为刘某办理后事，并将西瓜卖出。事后刁某认为自己应得劳务费5000元。“刁某可以请求刘某家人支付劳务费5000元。”  可以（1 ） 不可以（2 ）
4,1,1,8,moral,3.427,25.小张是游泳健将，看到公园里有人失足跌下湖里，于是赶紧下水救人，请问小张的做法对不对？           对（1 ）  不对（2 ）
4,1,1,8,common,10.635,26.小刘与小张、小李三人比赛唱歌，小刘得了第一名，请问小刘赢了小张，这个说法对不对？           对（ 1） 不对（2 ）
4,1,1,9,legal,15.739,27.甲忘带钥匙，邻居乙建议甲从自家阳台爬回家，并提供绳索以备不测。甲在攀越时绳索断裂，坠地受伤。“法院能否酌情让乙承担部分赔偿责任”   能（1 ） 不能（2 ）
4,1,2,9,moral,6.467,28.小明看到好朋友李四最近与王五走得很近，于是嫉妒王五，就在背后说王五的坏话。请问小明的做法应不应该？  应该（1 ） 不应该（2 ）
4,1,1,9,common,18.815,29.假设小明家热水沸腾的温度是100摄氏度，现在小明正在烧水，水沸腾了，请问此时水温度达到100摄氏度，这个说法对不对？              对（1 ）  不对（2 ）
4,1,2,10,legal,13.754,30.甲与乙结婚3年后，乙提出甲婚前谎称是海归博士且有车有房，乙婚后发现上当受骗并向法院请求确认婚姻无效。“乙的理由可以成立。”        可以（ 1） 不可以（2 ）
5,1,1,1,moral,4.499,"1.小王开车下班回家的路上邻居小孩因腹痛倒地,小王应该不应该送小回家或者去医院?                             应该(1)       不应该(2)  "
5,1,2,1,common,4.191,2.小李刚刚吃过了早饭，请问小李没吃饭，对吗？                    对（1 ）  不对（2 ）
5,1,1,1,legal,13.486,3.陈某家中失火，邻居家10岁的女孩刘某呼叫邻居救火，并取自家衣物参与扑火。在救火过程中，刘某手部烧伤，花去医疗费200元，衣物损失100元。“陈某应偿付刘某300元，而非200元” 这个说法对不对？             对（1 ） 不对（2 ）
5,1,1,2,moral,3.242,4.在公车上遇到怀孕9个月的孕妇，年轻人应不应该让座？              应该（ 1） 不应该（2  )
5,1,2,2,common,3.682,5.小明刚刚跑步去了。请问小明没有脚，对吗？                       对（1 ）  不对（ 2）
5,1,2,2,legal,18.159,6.乙替甲还了800借款，并对甲说：“这800元算给你了。”甲称将来一定还给乙。事后甲还了乙500元。后二人交恶，乙要求甲归还300元，甲认为乙已将800元给了自己于是要求乙退回500元。“甲无需再还300元”，这个说法对不对？  对（1 ） 不对（2 ）
5,1,1,3,moral,7.508, 7.小王捡到他人遗失的钱包后归还给失主，请问小王做的对不对？     对（1 ） 不对（ 2）
5,1,2,3,common,8.661,8.张三高度近视达900度，现在正在打乒乓球。请问张三没有戴眼镜对吗？  对（ 1） 不对（2 ）
5,1,1,3,legal,14.318,9.完全不能辨认自己行为的精神病人甲将自己的手表丢向路边，被乙拾得。 “乙应将手表还给甲” ，这个说法对不对？  对（1 ） 不对（2 ）
5,1,2,4,common,8.593,11.李四是土生土长的东北人，正在用家乡话给家人打电话。请问李四是不是在说闽南话？                   是（1 ） 不是（2 ）
5,1,1,4,legal,10.765,12.甲在乙承包的水库游泳，乙的雇工丙、丁误以为甲在偷鱼，于是将甲打伤。 “只能由乙承担赔偿责任，丙丁无需承担” ，这个说法对不对？   对（ 1） 不对（2 ）
5,1,1,4,moral,5.033,13.张三非常富有，看到汶川地震死了很多人，于是向灾区捐了款。请问张三的做法对不对？                   对（ 1） 不对（2 ）
5,1,1,5,common,12.343,14.小花、小明、小张三人进行100跑步决赛，小花跑了第三，那么小明不是第一名就是第二名，这个说法对不对？  对（1 ） 不对（2 ）
5,1,1,5,legal,21.682,15.甲将300本书送给乙，并约定乙不得转让给第三人，否则甲有权收回书。其后甲向乙交付了300本书。 “甲与乙的赠与合同有效，乙取得了书的所有权” ，这个说法对不对？     对（ 1） 不对（2 ）
5,1,1,5,moral,6.112,16.李四家住农村，在路边看到流浪猫很可怜，于是把猫带回家喂养。请问李四的做法对不对？                 对（ 1） 不对（2 ）
5,1,1,6,common,34.801,17.小张昨天对小明承诺：“如果明天天不下雨，我就带你去听音乐会。”今天他们两都去听音乐会了，请问今天没有下雨，这个说法对不对？    对（1 ） 不对（2 ）
5,1,2,6,legal,11.869,18.周某从某4S店买了1辆车，约定试用10天，试用期满后办理过户手续。试用期间，周某违反交规将李某撞成重伤。现周某无力赔偿。李某能否要求4S店赔偿？能(  1 )  不能(2   )
5,1,1,6,moral,11.459,19.小李看到好朋友王五和黑社会接触，并参与打群架，于是就劝阻王五继续与黑社会接触。请问小李的做法对不对？  对（1 ） 不对（2 ）
5,1,1,7,legal,16.788,21. 潘某与刘某相约出游，潘某在长江边拾得一块奇石，爱不释手，拟带回家。刘某说，《物权法》规定河流属于国家所有，这一行为可能属于侵占国家财产。“潘某可以取得奇石的所有权。”这个说法对不对 ？          对（1 ） 不对（2 ）
5,1,1,7,moral,3.93,22.小明看到歹徒行凶抢劫，于是打电话报警。请问小明的做法对不对？   对（ 1） 不对（2 ）
5,1,1,7,common,12.453,23.张三、李四、王五三个人比体重，三人体重各不相同，已知王五是最轻的，那么张三与李四两人有一个是体重最重的，这个说法对不对？   对（1 ） 不对（ 2）
5,1,2,8,legal,9.948,24.刘某种植西瓜，收获季节病故。好友刁某联系不上刘某家人，便为刘某办理后事，并将西瓜卖出。事后刁某认为自己应得劳务费5000元。“刁某可以请求刘某家人支付劳务费5000元。”  可以（1 ） 不可以（2 ）
5,1,1,8,moral,4.497,25.小张是游泳健将，看到公园里有人失足跌下湖里，于是赶紧下水救人，请问小张的做法对不对？           对（1 ）  不对（2 ）
5,1,1,8,common,9.54,26.小刘与小张、小李三人比赛唱歌，小刘得了第一名，请问小刘赢了小张，这个说法对不对？           对（ 1） 不对（2 ）
5,1,1,9,legal,7.786,27.甲忘带钥匙，邻居乙建议甲从自家阳台爬回家，并提供绳索以备不测。甲在攀越时绳索断裂，坠地受伤。“法院能否酌情让乙承担部分赔偿责任”   能（1 ） 不能（2 ）
5,1,2,9,moral,7.568,28.小明看到好朋友李四最近与王五走得很近，于是嫉妒王五，就在背后说王五的坏话。请问小明的做法应不应该？  应该（1 ） 不应该（2 ）
5,1,1,9,common,7.262,29.假设小明家热水沸腾的温度是100摄氏度，现在小明正在烧水，水沸腾了，请问此时水温度达到100摄氏度，这个说法对不对？              对（1 ）  不对（2 ）
5,1,2,10,legal,15.969,30.甲与乙结婚3年后，乙提出甲婚前谎称是海归博士且有车有房，乙婚后发现上当受骗并向法院请求确认婚姻无效。“乙的理由可以成立。”        可以（ 1） 不可以（2 ）
6,1,1,1,moral,13.743,"1.小王开车下班回家的路上邻居小孩因腹痛倒地,小王应该不应该送小回家或者去医院?                             应该(1)       不应该(2)  "
6,1,2,1,common,4.993,2.小李刚刚吃过了早饭，请问小李没吃饭，对吗？                    对（1 ）  不对（2 ）
6,1,1,1,legal,19.319,3.陈某家中失火，邻居家10岁的女孩刘某呼叫邻居救火，并取自家衣物参与扑火。在救火过程中，刘某手部烧伤，花去医疗费200元，衣物损失100元。“陈某应偿付刘某300元，而非200元” 这个说法对不对？             对（1 ） 不对（2 ）
6,1,1,2,moral,4.252,4.在公车上遇到怀孕9个月的孕妇，年轻人应不应该让座？              应该（ 1） 不应该（2  )
6,1,2,2,common,7.379,5.小明刚刚跑步去了。请问小明没有脚，对吗？                       对（1 ）  不对（ 2）
6,1,2,2,legal,53.624,6.乙替甲还了800借款，并对甲说：“这800元算给你了。”甲称将来一定还给乙。事后甲还了乙500元。后二人交恶，乙要求甲归还300元，甲认为乙已将800元给了自己于是要求乙退回500元。“甲无需再还300元”，这个说法对不对？  对（1 ） 不对（2 ）
6,1,1,3,moral,6.147, 7.小王捡到他人遗失的钱包后归还给失主，请问小王做的对不对？     对（1 ） 不对（ 2）
6,1,2,3,common,14.188,8.张三高度近视达900度，现在正在打乒乓球。请问张三没有戴眼镜对吗？  对（ 1） 不对（2 ）
6,1,1,3,legal,16.868,9.完全不能辨认自己行为的精神病人甲将自己的手表丢向路边，被乙拾得。 “乙应将手表还给甲” ，这个说法对不对？  对（1 ） 不对（2 ）
6,1,2,4,common,11.427,11.李四是土生土长的东北人，正在用家乡话给家人打电话。请问李四是不是在说闽南话？                   是（1 ） 不是（2 ）
6,1,1,4,legal,34.755,12.甲在乙承包的水库游泳，乙的雇工丙、丁误以为甲在偷鱼，于是将甲打伤。 “只能由乙承担赔偿责任，丙丁无需承担” ，这个说法对不对？   对（ 1） 不对（2 ）
6,1,1,4,moral,11.026,13.张三非常富有，看到汶川地震死了很多人，于是向灾区捐了款。请问张三的做法对不对？                   对（ 1） 不对（2 ）
6,1,1,5,common,10.459,14.小花、小明、小张三人进行100跑步决赛，小花跑了第三，那么小明不是第一名就是第二名，这个说法对不对？  对（1 ） 不对（2 ）
6,1,1,5,legal,24.524,15.甲将300本书送给乙，并约定乙不得转让给第三人，否则甲有权收回书。其后甲向乙交付了300本书。 “甲与乙的赠与合同有效，乙取得了书的所有权” ，这个说法对不对？     对（ 1） 不对（2 ）
6,1,1,5,moral,13.748,16.李四家住农村，在路边看到流浪猫很可怜，于是把猫带回家喂养。请问李四的做法对不对？                 对（ 1） 不对（2 ）
6,1,1,6,common,18.012,17.小张昨天对小明承诺：“如果明天天不下雨，我就带你去听音乐会。”今天他们两都去听音乐会了，请问今天没有下雨，这个说法对不对？    对（1 ） 不对（2 ）
6,1,2,6,legal,17.224,18.周某从某4S店买了1辆车，约定试用10天，试用期满后办理过户手续。试用期间，周某违反交规将李某撞成重伤。现周某无力赔偿。李某能否要求4S店赔偿？能(  1 )  不能(2   )
6,1,1,6,moral,9.787,19.小李看到好朋友王五和黑社会接触，并参与打群架，于是就劝阻王五继续与黑社会接触。请问小李的做法对不对？  对（1 ） 不对（2 ）
6,1,1,7,legal,18.814,21. 潘某与刘某相约出游，潘某在长江边拾得一块奇石，爱不释手，拟带回家。刘某说，《物权法》规定河流属于国家所有，这一行为可能属于侵占国家财产。“潘某可以取得奇石的所有权。”这个说法对不对 ？          对（1 ） 不对（2 ）
6,1,1,7,moral,3.561,22.小明看到歹徒行凶抢劫，于是打电话报警。请问小明的做法对不对？   对（ 1） 不对（2 ）
6,1,1,7,common,19.003,23.张三、李四、王五三个人比体重，三人体重各不相同，已知王五是最轻的，那么张三与李四两人有一个是体重最重的，这个说法对不对？   对（1 ） 不对（ 2）
6,1,2,8,legal,22.925,24.刘某种植西瓜，收获季节病故。好友刁某联系不上刘某家人，便为刘某办理后事，并将西瓜卖出。事后刁某认为自己应得劳务费5000元。“刁某可以请求刘某家人支付劳务费5000元。”  可以（1 ） 不可以（2 ）
6,1,1,8,moral,8.335,25.小张是游泳健将，看到公园里有人失足跌下湖里，于是赶紧下水救人，请问小张的做法对不对？           对（1 ）  不对（2 ）
6,1,1,8,common,15.822,26.小刘与小张、小李三人比赛唱歌，小刘得了第一名，请问小刘赢了小张，这个说法对不对？           对（ 1） 不对（2 ）
6,1,1,9,legal,16.771,27.甲忘带钥匙，邻居乙建议甲从自家阳台爬回家，并提供绳索以备不测。甲在攀越时绳索断裂，坠地受伤。“法院能否酌情让乙承担部分赔偿责任”   能（1 ） 不能（2 ）
6,1,2,9,moral,9.409,28.小明看到好朋友李四最近与王五走得很近，于是嫉妒王五，就在背后说王五的坏话。请问小明的做法应不应该？  应该（1 ） 不应该（2 ）
6,1,1,9,common,10.756,29.假设小明家热水沸腾的温度是100摄氏度，现在小明正在烧水，水沸腾了，请问此时水温度达到100摄氏度，这个说法对不对？              对（1 ）  不对（2 ）
6,1,2,10,legal,8.664,30.甲与乙结婚3年后，乙提出甲婚前谎称是海归博士且有车有房，乙婚后发现上当受骗并向法院请求确认婚姻无效。“乙的理由可以成立。”        可以（ 1） 不可以（2 ）
7,1,1,1,moral,6.415,"1.小王开车下班回家的路上邻居小孩因腹痛倒地,小王应该不应该送小回家或者去医院?                             应该(1)       不应该(2)  "
7,1,2,1,common,8.485,2.小李刚刚吃过了早饭，请问小李没吃饭，对吗？                    对（1 ）  不对（2 ）
7,1,1,1,legal,20.293,3.陈某家中失火，邻居家10岁的女孩刘某呼叫邻居救火，并取自家衣物参与扑火。在救火过程中，刘某手部烧伤，花去医疗费200元，衣物损失100元。“陈某应偿付刘某300元，而非200元” 这个说法对不对？             对（1 ） 不对（2 ）
7,1,1,2,moral,2.691,4.在公车上遇到怀孕9个月的孕妇，年轻人应不应该让座？              应该（ 1） 不应该（2  )
7,1,2,2,common,5.305,5.小明刚刚跑步去了。请问小明没有脚，对吗？                       对（1 ）  不对（ 2）
7,1,2,2,legal,29.691,6.乙替甲还了800借款，并对甲说：“这800元算给你了。”甲称将来一定还给乙。事后甲还了乙500元。后二人交恶，乙要求甲归还300元，甲认为乙已将800元给了自己于是要求乙退回500元。“甲无需再还300元”，这个说法对不对？  对（1 ） 不对（2 ）
7,1,1,3,moral,5.784, 7.小王捡到他人遗失的钱包后归还给失主，请问小王做的对不对？     对（1 ） 不对（ 2）
7,1,2,3,common,6.512,8.张三高度近视达900度，现在正在打乒乓球。请问张三没有戴眼镜对吗？  对（ 1） 不对（2 ）
7,1,1,3,legal,11.01,9.完全不能辨认自己行为的精神病人甲将自己的手表丢向路边，被乙拾得。 “乙应将手表还给甲” ，这个说法对不对？  对（1 ） 不对（2 ）
7,1,2,4,common,6.037,11.李四是土生土长的东北人，正在用家乡话给家人打电话。请问李四是不是在说闽南话？                   是（1 ） 不是（2 ）
7,1,1,4,legal,16.474,12.甲在乙承包的水库游泳，乙的雇工丙、丁误以为甲在偷鱼，于是将甲打伤。 “只能由乙承担赔偿责任，丙丁无需承担” ，这个说法对不对？   对（ 1） 不对（2 ）
7,1,1,4,moral,5.86,13.张三非常富有，看到汶川地震死了很多人，于是向灾区捐了款。请问张三的做法对不对？                   对（ 1） 不对（2 ）
7,1,1,5,common,16.12,14.小花、小明、小张三人进行100跑步决赛，小花跑了第三，那么小明不是第一名就是第二名，这个说法对不对？  对（1 ） 不对（2 ）
7,1,1,5,legal,28.104,15.甲将300本书送给乙，并约定乙不得转让给第三人，否则甲有权收回书。其后甲向乙交付了300本书。 “甲与乙的赠与合同有效，乙取得了书的所有权” ，这个说法对不对？     对（ 1） 不对（2 ）
7,1,1,5,moral,5.679,16.李四家住农村，在路边看到流浪猫很可怜，于是把猫带回家喂养。请问李四的做法对不对？                 对（ 1） 不对（2 ）
7,1,1,6,common,10.795,17.小张昨天对小明承诺：“如果明天天不下雨，我就带你去听音乐会。”今天他们两都去听音乐会了，请问今天没有下雨，这个说法对不对？    对（1 ） 不对（2 ）
7,1,2,6,legal,35.685,18.周某从某4S店买了1辆车，约定试用10天，试用期满后办理过户手续。试用期间，周某违反交规将李某撞成重伤。现周某无力赔偿。李某能否要求4S店赔偿？能(  1 )  不能(2   )
7,1,1,6,moral,8.004,19.小李看到好朋友王五和黑社会接触，并参与打群架，于是就劝阻王五继续与黑社会接触。请问小李的做法对不对？  对（1 ） 不对（2 ）
7,1,1,7,legal,28.842,21. 潘某与刘某相约出游，潘某在长江边拾得一块奇石，爱不释手，拟带回家。刘某说，《物权法》规定河流属于国家所有，这一行为可能属于侵占国家财产。“潘某可以取得奇石的所有权。”这个说法对不对 ？          对（1 ） 不对（2 ）
7,1,1,7,moral,3.779,22.小明看到歹徒行凶抢劫，于是打电话报警。请问小明的做法对不对？   对（ 1） 不对（2 ）
7,1,1,7,common,7.677,23.张三、李四、王五三个人比体重，三人体重各不相同，已知王五是最轻的，那么张三与李四两人有一个是体重最重的，这个说法对不对？   对（1 ） 不对（ 2）
7,1,2,8,legal,13.046,24.刘某种植西瓜，收获季节病故。好友刁某联系不上刘某家人，便为刘某办理后事，并将西瓜卖出。事后刁某认为自己应得劳务费5000元。“刁某可以请求刘某家人支付劳务费5000元。”  可以（1 ） 不可以（2 ）
7,1,1,8,moral,3.932,25.小张是游泳健将，看到公园里有人失足跌下湖里，于是赶紧下水救人，请问小张的做法对不对？           对（1 ）  不对（2 ）
7,1,1,8,common,11,26.小刘与小张、小李三人比赛唱歌，小刘得了第一名，请问小刘赢了小张，这个说法对不对？           对（ 1） 不对（2 ）
7,1,1,9,legal,9.672,27.甲忘带钥匙，邻居乙建议甲从自家阳台爬回家，并提供绳索以备不测。甲在攀越时绳索断裂，坠地受伤。“法院能否酌情让乙承担部分赔偿责任”   能（1 ） 不能（2 ）
7,1,2,9,moral,9.905,28.小明看到好朋友李四最近与王五走得很近，于是嫉妒王五，就在背后说王五的坏话。请问小明的做法应不应该？  应该（1 ） 不应该（2 ）
7,1,1,9,common,9.328,29.假设小明家热水沸腾的温度是100摄氏度，现在小明正在烧水，水沸腾了，请问此时水温度达到100摄氏度，这个说法对不对？              对（1 ）  不对（2 ）
7,1,2,10,legal,20.118,30.甲与乙结婚3年后，乙提出甲婚前谎称是海归博士且有车有房，乙婚后发现上当受骗并向法院请求确认婚姻无效。“乙的理由可以成立。”        可以（ 1） 不可以（2 ）
8,1,1,1,moral,14.53,"1.小王开车下班回家的路上邻居小孩因腹痛倒地,小王应该不应该送小回家或者去医院?                             应该(1)       不应该(2)  "
8,1,2,1,common,4.268,2.小李刚刚吃过了早饭，请问小李没吃饭，对吗？                    对（1 ）  不对（2 ）
8,1,1,1,legal,24.304,3.陈某家中失火，邻居家10岁的女孩刘某呼叫邻居救火，并取自家衣物参与扑火。在救火过程中，刘某手部烧伤，花去医疗费200元，衣物损失100元。“陈某应偿付刘某300元，而非200元” 这个说法对不对？             对（1 ） 不对（2 ）
8,1,1,2,moral,3.706,4.在公车上遇到怀孕9个月的孕妇，年轻人应不应该让座？              应该（ 1） 不应该（2  )
8,1,2,2,common,4.382,5.小明刚刚跑步去了。请问小明没有脚，对吗？                       对（1 ）  不对（ 2）
8,1,2,2,legal,28.303,6.乙替甲还了800借款，并对甲说：“这800元算给你了。”甲称将来一定还给乙。事后甲还了乙500元。后二人交恶，乙要求甲归还300元，甲认为乙已将800元给了自己于是要求乙退回500元。“甲无需再还300元”，这个说法对不对？  对（1 ） 不对（2 ）
8,1,1,3,moral,3.934, 7.小王捡到他人遗失的钱包后归还给失主，请问小王做的对不对？     对（1 ） 不对（ 2）
8,1,2,3,common,10.8,8.张三高度近视达900度，现在正在打乒乓球。请问张三没有戴眼镜对吗？  对（ 1） 不对（2 ）
8,1,1,3,legal,13.971,9.完全不能辨认自己行为的精神病人甲将自己的手表丢向路边，被乙拾得。 “乙应将手表还给甲” ，这个说法对不对？  对（1 ） 不对（2 ）
8,1,2,4,common,5.238,11.李四是土生土长的东北人，正在用家乡话给家人打电话。请问李四是不是在说闽南话？                   是（1 ） 不是（2 ）
8,1,1,4,legal,33.228,12.甲在乙承包的水库游泳，乙的雇工丙、丁误以为甲在偷鱼，于是将甲打伤。 “只能由乙承担赔偿责任，丙丁无需承担” ，这个说法对不对？   对（ 1） 不对（2 ）
8,1,1,4,moral,6.313,13.张三非常富有，看到汶川地震死了很多人，于是向灾区捐了款。请问张三的做法对不对？                   对（ 1） 不对（2 ）
8,1,1,5,common,19.107,14.小花、小明、小张三人进行100跑步决赛，小花跑了第三，那么小明不是第一名就是第二名，这个说法对不对？  对（1 ） 不对（2 ）
8,1,1,5,legal,27.888,15.甲将300本书送给乙，并约定乙不得转让给第三人，否则甲有权收回书。其后甲向乙交付了300本书。 “甲与乙的赠与合同有效，乙取得了书的所有权” ，这个说法对不对？     对（ 1） 不对（2 ）
8,1,1,5,moral,9.968,16.李四家住农村，在路边看到流浪猫很可怜，于是把猫带回家喂养。请问李四的做法对不对？                 对（ 1） 不对（2 ）
8,1,1,6,common,24.908,17.小张昨天对小明承诺：“如果明天天不下雨，我就带你去听音乐会。”今天他们两都去听音乐会了，请问今天没有下雨，这个说法对不对？    对（1 ） 不对（2 ）
8,1,2,6,legal,18.54,18.周某从某4S店买了1辆车，约定试用10天，试用期满后办理过户手续。试用期间，周某违反交规将李某撞成重伤。现周某无力赔偿。李某能否要求4S店赔偿？能(  1 )  不能(2   )
8,1,1,6,moral,27.002,19.小李看到好朋友王五和黑社会接触，并参与打群架，于是就劝阻王五继续与黑社会接触。请问小李的做法对不对？  对（1 ） 不对（2 ）
8,1,1,7,legal,26.728,21. 潘某与刘某相约出游，潘某在长江边拾得一块奇石，爱不释手，拟带回家。刘某说，《物权法》规定河流属于国家所有，这一行为可能属于侵占国家财产。“潘某可以取得奇石的所有权。”这个说法对不对 ？          对（1 ） 不对（2 ）
8,1,1,7,moral,8.886,22.小明看到歹徒行凶抢劫，于是打电话报警。请问小明的做法对不对？   对（ 1） 不对（2 ）
8,1,1,7,common,16.358,23.张三、李四、王五三个人比体重，三人体重各不相同，已知王五是最轻的，那么张三与李四两人有一个是体重最重的，这个说法对不对？   对（1 ） 不对（ 2）
8,1,2,8,legal,17.765,24.刘某种植西瓜，收获季节病故。好友刁某联系不上刘某家人，便为刘某办理后事，并将西瓜卖出。事后刁某认为自己应得劳务费5000元。“刁某可以请求刘某家人支付劳务费5000元。”  可以（1 ） 不可以（2 ）
8,1,1,8,moral,4.139,25.小张是游泳健将，看到公园里有人失足跌下湖里，于是赶紧下水救人，请问小张的做法对不对？           对（1 ）  不对（2 ）
8,1,1,8,common,11.342,26.小刘与小张、小李三人比赛唱歌，小刘得了第一名，请问小刘赢了小张，这个说法对不对？           对（ 1） 不对（2 ）
8,1,1,9,legal,47.457,27.甲忘带钥匙，邻居乙建议甲从自家阳台爬回家，并提供绳索以备不测。甲在攀越时绳索断裂，坠地受伤。“法院能否酌情让乙承担部分赔偿责任”   能（1 ） 不能（2 ）
8,1,2,9,moral,16.384,28.小明看到好朋友李四最近与王五走得很近，于是嫉妒王五，就在背后说王五的坏话。请问小明的做法应不应该？  应该（1 ） 不应该（2 ）
8,1,1,9,common,14.078,29.假设小明家热水沸腾的温度是100摄氏度，现在小明正在烧水，水沸腾了，请问此时水温度达到100摄氏度，这个说法对不对？              对（1 ）  不对（2 ）
8,1,2,10,legal,18.394,30.甲与乙结婚3年后，乙提出甲婚前谎称是海归博士且有车有房，乙婚后发现上当受骗并向法院请求确认婚姻无效。“乙的理由可以成立。”        可以（ 1） 不可以（2 ）
9,1,1,1,moral,2.925,"1.小王开车下班回家的路上邻居小孩因腹痛倒地,小王应该不应该送小回家或者去医院?                             应该(1)       不应该(2)  "
9,1,2,1,common,2.482,2.小李刚刚吃过了早饭，请问小李没吃饭，对吗？                    对（1 ）  不对（2 ）
9,1,1,1,legal,15.216,3.陈某家中失火，邻居家10岁的女孩刘某呼叫邻居救火，并取自家衣物参与扑火。在救火过程中，刘某手部烧伤，花去医疗费200元，衣物损失100元。“陈某应偿付刘某300元，而非200元” 这个说法对不对？             对（1 ） 不对（2 ）
9,1,1,2,moral,2.317,4.在公车上遇到怀孕9个月的孕妇，年轻人应不应该让座？              应该（ 1） 不应该（2  )
9,1,2,2,common,2.834,5.小明刚刚跑步去了。请问小明没有脚，对吗？                       对（1 ）  不对（ 2）
9,1,2,2,legal,17.818,6.乙替甲还了800借款，并对甲说：“这800元算给你了。”甲称将来一定还给乙。事后甲还了乙500元。后二人交恶，乙要求甲归还300元，甲认为乙已将800元给了自己于是要求乙退回500元。“甲无需再还300元”，这个说法对不对？  对（1 ） 不对（2 ）
9,1,1,3,moral,3.085, 7.小王捡到他人遗失的钱包后归还给失主，请问小王做的对不对？     对（1 ） 不对（ 2）
9,1,2,3,common,8.652,8.张三高度近视达900度，现在正在打乒乓球。请问张三没有戴眼镜对吗？  对（ 1） 不对（2 ）
9,1,1,3,legal,6.846,9.完全不能辨认自己行为的精神病人甲将自己的手表丢向路边，被乙拾得。 “乙应将手表还给甲” ，这个说法对不对？  对（1 ） 不对（2 ）
9,1,2,4,common,4.691,11.李四是土生土长的东北人，正在用家乡话给家人打电话。请问李四是不是在说闽南话？                   是（1 ） 不是（2 ）
9,1,1,4,legal,8.479,12.甲在乙承包的水库游泳，乙的雇工丙、丁误以为甲在偷鱼，于是将甲打伤。 “只能由乙承担赔偿责任，丙丁无需承担” ，这个说法对不对？   对（ 1） 不对（2 ）
9,1,1,4,moral,3.896,13.张三非常富有，看到汶川地震死了很多人，于是向灾区捐了款。请问张三的做法对不对？                   对（ 1） 不对（2 ）
9,1,1,5,common,9.717,14.小花、小明、小张三人进行100跑步决赛，小花跑了第三，那么小明不是第一名就是第二名，这个说法对不对？  对（1 ） 不对（2 ）
9,1,1,5,legal,14.778,15.甲将300本书送给乙，并约定乙不得转让给第三人，否则甲有权收回书。其后甲向乙交付了300本书。 “甲与乙的赠与合同有效，乙取得了书的所有权” ，这个说法对不对？     对（ 1） 不对（2 ）
9,1,1,5,moral,6.882,16.李四家住农村，在路边看到流浪猫很可怜，于是把猫带回家喂养。请问李四的做法对不对？                 对（ 1） 不对（2 ）
9,1,1,6,common,12.685,17.小张昨天对小明承诺：“如果明天天不下雨，我就带你去听音乐会。”今天他们两都去听音乐会了，请问今天没有下雨，这个说法对不对？    对（1 ） 不对（2 ）
9,1,2,6,legal,21.97,18.周某从某4S店买了1辆车，约定试用10天，试用期满后办理过户手续。试用期间，周某违反交规将李某撞成重伤。现周某无力赔偿。李某能否要求4S店赔偿？能(  1 )  不能(2   )
9,1,1,6,moral,9.139,19.小李看到好朋友王五和黑社会接触，并参与打群架，于是就劝阻王五继续与黑社会接触。请问小李的做法对不对？  对（1 ） 不对（2 ）
9,1,1,7,legal,16.907,21. 潘某与刘某相约出游，潘某在长江边拾得一块奇石，爱不释手，拟带回家。刘某说，《物权法》规定河流属于国家所有，这一行为可能属于侵占国家财产。“潘某可以取得奇石的所有权。”这个说法对不对 ？          对（1 ） 不对（2 ）
9,1,1,7,moral,3.395,22.小明看到歹徒行凶抢劫，于是打电话报警。请问小明的做法对不对？   对（ 1） 不对（2 ）
9,1,1,7,common,10.324,23.张三、李四、王五三个人比体重，三人体重各不相同，已知王五是最轻的，那么张三与李四两人有一个是体重最重的，这个说法对不对？   对（1 ） 不对（ 2）
9,1,2,8,legal,15.362,24.刘某种植西瓜，收获季节病故。好友刁某联系不上刘某家人，便为刘某办理后事，并将西瓜卖出。事后刁某认为自己应得劳务费5000元。“刁某可以请求刘某家人支付劳务费5000元。”  可以（1 ） 不可以（2 ）
9,1,1,8,moral,4.146,25.小张是游泳健将，看到公园里有人失足跌下湖里，于是赶紧下水救人，请问小张的做法对不对？           对（1 ）  不对（2 ）
9,1,1,8,common,10.508,26.小刘与小张、小李三人比赛唱歌，小刘得了第一名，请问小刘赢了小张，这个说法对不对？           对（ 1） 不对（2 ）
9,1,1,9,legal,9.995,27.甲忘带钥匙，邻居乙建议甲从自家阳台爬回家，并提供绳索以备不测。甲在攀越时绳索断裂，坠地受伤。“法院能否酌情让乙承担部分赔偿责任”   能（1 ） 不能（2 ）
9,1,2,9,moral,6.853,28.小明看到好朋友李四最近与王五走得很近，于是嫉妒王五，就在背后说王五的坏话。请问小明的做法应不应该？  应该（1 ） 不应该（2 ）
9,1,1,9,common,10.729,29.假设小明家热水沸腾的温度是100摄氏度，现在小明正在烧水，水沸腾了，请问此时水温度达到100摄氏度，这个说法对不对？              对（1 ）  不对（2 ）
9,1,2,10,legal,16.854,30.甲与乙结婚3年后，乙提出甲婚前谎称是海归博士且有车有房，乙婚后发现上当受骗并向法院请求确认婚姻无效。“乙的理由可以成立。”        可以（ 1） 不可以（2 ）
10,1,1,1,moral,6.098,"1.小王开车下班回家的路上邻居小孩因腹痛倒地,小王应该不应该送小回家或者去医院?                             应该(1)       不应该(2)  "
10,1,2,1,common,5.629,2.小李刚刚吃过了早饭，请问小李没吃饭，对吗？                    对（1 ）  不对（2 ）
10,1,1,1,legal,17.993,3.陈某家中失火，邻居家10岁的女孩刘某呼叫邻居救火，并取自家衣物参与扑火。在救火过程中，刘某手部烧伤，花去医疗费200元，衣物损失100元。“陈某应偿付刘某300元，而非200元” 这个说法对不对？             对（1 ） 不对（2 ）
10,1,1,2,moral,3.581,4.在公车上遇到怀孕9个月的孕妇，年轻人应不应该让座？              应该（ 1） 不应该（2  )
10,1,2,2,common,5.391,5.小明刚刚跑步去了。请问小明没有脚，对吗？                       对（1 ）  不对（ 2）
10,1,2,2,legal,39.477,6.乙替甲还了800借款，并对甲说：“这800元算给你了。”甲称将来一定还给乙。事后甲还了乙500元。后二人交恶，乙要求甲归还300元，甲认为乙已将800元给了自己于是要求乙退回500元。“甲无需再还300元”，这个说法对不对？  对（1 ） 不对（2 ）
10,1,1,3,moral,5.443, 7.小王捡到他人遗失的钱包后归还给失主，请问小王做的对不对？     对（1 ） 不对（ 2）
10,1,2,3,common,6.36,8.张三高度近视达900度，现在正在打乒乓球。请问张三没有戴眼镜对吗？  对（ 1） 不对（2 ）
10,1,1,3,legal,6.944,9.完全不能辨认自己行为的精神病人甲将自己的手表丢向路边，被乙拾得。 “乙应将手表还给甲” ，这个说法对不对？  对（1 ） 不对（2 ）
10,1,2,4,common,12.249,11.李四是土生土长的东北人，正在用家乡话给家人打电话。请问李四是不是在说闽南话？                   是（1 ） 不是（2 ）
10,1,1,4,legal,17.096,12.甲在乙承包的水库游泳，乙的雇工丙、丁误以为甲在偷鱼，于是将甲打伤。 “只能由乙承担赔偿责任，丙丁无需承担” ，这个说法对不对？   对（ 1） 不对（2 ）
10,1,1,4,moral,4.657,13.张三非常富有，看到汶川地震死了很多人，于是向灾区捐了款。请问张三的做法对不对？                   对（ 1） 不对（2 ）
10,1,1,5,common,16.19,14.小花、小明、小张三人进行100跑步决赛，小花跑了第三，那么小明不是第一名就是第二名，这个说法对不对？  对（1 ） 不对（2 ）
10,1,1,5,legal,14.347,15.甲将300本书送给乙，并约定乙不得转让给第三人，否则甲有权收回书。其后甲向乙交付了300本书。 “甲与乙的赠与合同有效，乙取得了书的所有权” ，这个说法对不对？     对（ 1） 不对（2 ）
10,1,1,5,moral,9.564,16.李四家住农村，在路边看到流浪猫很可怜，于是把猫带回家喂养。请问李四的做法对不对？                 对（ 1） 不对（2 ）
10,1,1,6,common,12.017,17.小张昨天对小明承诺：“如果明天天不下雨，我就带你去听音乐会。”今天他们两都去听音乐会了，请问今天没有下雨，这个说法对不对？    对（1 ） 不对（2 ）
10,1,2,6,legal,12.513,18.周某从某4S店买了1辆车，约定试用10天，试用期满后办理过户手续。试用期间，周某违反交规将李某撞成重伤。现周某无力赔偿。李某能否要求4S店赔偿？能(  1 )  不能(2   )
10,1,1,6,moral,8.108,19.小李看到好朋友王五和黑社会接触，并参与打群架，于是就劝阻王五继续与黑社会接触。请问小李的做法对不对？  对（1 ） 不对（2 ）
10,1,1,7,legal,18.674,21. 潘某与刘某相约出游，潘某在长江边拾得一块奇石，爱不释手，拟带回家。刘某说，《物权法》规定河流属于国家所有，这一行为可能属于侵占国家财产。“潘某可以取得奇石的所有权。”这个说法对不对 ？          对（1 ） 不对（2 ）
10,1,1,7,moral,4.225,22.小明看到歹徒行凶抢劫，于是打电话报警。请问小明的做法对不对？   对（ 1） 不对（2 ）
10,1,1,7,common,9.008,23.张三、李四、王五三个人比体重，三人体重各不相同，已知王五是最轻的，那么张三与李四两人有一个是体重最重的，这个说法对不对？   对（1 ） 不对（ 2）
10,1,2,8,legal,11.779,24.刘某种植西瓜，收获季节病故。好友刁某联系不上刘某家人，便为刘某办理后事，并将西瓜卖出。事后刁某认为自己应得劳务费5000元。“刁某可以请求刘某家人支付劳务费5000元。”  可以（1 ） 不可以（2 ）
10,1,1,8,moral,5.061,25.小张是游泳健将，看到公园里有人失足跌下湖里，于是赶紧下水救人，请问小张的做法对不对？           对（1 ）  不对（2 ）
10,1,1,8,common,9.194,26.小刘与小张、小李三人比赛唱歌，小刘得了第一名，请问小刘赢了小张，这个说法对不对？           对（ 1） 不对（2 ）
10,1,1,9,legal,11.574,27.甲忘带钥匙，邻居乙建议甲从自家阳台爬回家，并提供绳索以备不测。甲在攀越时绳索断裂，坠地受伤。“法院能否酌情让乙承担部分赔偿责任”   能（1 ） 不能（2 ）
10,1,2,9,moral,7.321,28.小明看到好朋友李四最近与王五走得很近，于是嫉妒王五，就在背后说王五的坏话。请问小明的做法应不应该？  应该（1 ） 不应该（2 ）
10,1,1,9,common,12.825,29.假设小明家热水沸腾的温度是100摄氏度，现在小明正在烧水，水沸腾了，请问此时水温度达到100摄氏度，这个说法对不对？              对（1 ）  不对（2 ）
10,1,2,10,legal,7.497,30.甲与乙结婚3年后，乙提出甲婚前谎称是海归博士且有车有房，乙婚后发现上当受骗并向法院请求确认婚姻无效。“乙的理由可以成立。”        可以（ 1） 不可以（2 ）
11,1,1,1,moral,6.796,"1.小王开车下班回家的路上邻居小孩因腹痛倒地,小王应该不应该送小回家或者去医院?                             应该(1)       不应该(2)  "
11,1,2,1,common,3.851,2.小李刚刚吃过了早饭，请问小李没吃饭，对吗？                    对（1 ）  不对（2 ）
11,1,1,1,legal,15.417,3.陈某家中失火，邻居家10岁的女孩刘某呼叫邻居救火，并取自家衣物参与扑火。在救火过程中，刘某手部烧伤，花去医疗费200元，衣物损失100元。“陈某应偿付刘某300元，而非200元” 这个说法对不对？             对（1 ） 不对（2 ）
11,1,1,2,moral,5.15,4.在公车上遇到怀孕9个月的孕妇，年轻人应不应该让座？              应该（ 1） 不应该（2  )
11,1,2,2,common,3.624,5.小明刚刚跑步去了。请问小明没有脚，对吗？                       对（1 ）  不对（ 2）
11,1,2,2,legal,30.23,6.乙替甲还了800借款，并对甲说：“这800元算给你了。”甲称将来一定还给乙。事后甲还了乙500元。后二人交恶，乙要求甲归还300元，甲认为乙已将800元给了自己于是要求乙退回500元。“甲无需再还300元”，这个说法对不对？  对（1 ） 不对（2 ）
11,1,1,3,moral,4.005, 7.小王捡到他人遗失的钱包后归还给失主，请问小王做的对不对？     对（1 ） 不对（ 2）
11,1,2,3,common,6.837,8.张三高度近视达900度，现在正在打乒乓球。请问张三没有戴眼镜对吗？  对（ 1） 不对（2 ）
11,1,1,3,legal,12.218,9.完全不能辨认自己行为的精神病人甲将自己的手表丢向路边，被乙拾得。 “乙应将手表还给甲” ，这个说法对不对？  对（1 ） 不对（2 ）
11,1,2,4,common,5.362,11.李四是土生土长的东北人，正在用家乡话给家人打电话。请问李四是不是在说闽南话？                   是（1 ） 不是（2 ）
11,1,1,4,legal,10.258,12.甲在乙承包的水库游泳，乙的雇工丙、丁误以为甲在偷鱼，于是将甲打伤。 “只能由乙承担赔偿责任，丙丁无需承担” ，这个说法对不对？   对（ 1） 不对（2 ）
11,1,1,4,moral,5.451,13.张三非常富有，看到汶川地震死了很多人，于是向灾区捐了款。请问张三的做法对不对？                   对（ 1） 不对（2 ）
11,1,1,5,common,9.736,14.小花、小明、小张三人进行100跑步决赛，小花跑了第三，那么小明不是第一名就是第二名，这个说法对不对？  对（1 ） 不对（2 ）
11,1,1,5,legal,23.102,15.甲将300本书送给乙，并约定乙不得转让给第三人，否则甲有权收回书。其后甲向乙交付了300本书。 “甲与乙的赠与合同有效，乙取得了书的所有权” ，这个说法对不对？     对（ 1） 不对（2 ）
11,1,1,5,moral,6.746,16.李四家住农村，在路边看到流浪猫很可怜，于是把猫带回家喂养。请问李四的做法对不对？                 对（ 1） 不对（2 ）
11,1,1,6,common,9.626,17.小张昨天对小明承诺：“如果明天天不下雨，我就带你去听音乐会。”今天他们两都去听音乐会了，请问今天没有下雨，这个说法对不对？    对（1 ） 不对（2 ）
11,1,2,6,legal,9.78,18.周某从某4S店买了1辆车，约定试用10天，试用期满后办理过户手续。试用期间，周某违反交规将李某撞成重伤。现周某无力赔偿。李某能否要求4S店赔偿？能(  1 )  不能(2   )
11,1,1,6,moral,7.824,19.小李看到好朋友王五和黑社会接触，并参与打群架，于是就劝阻王五继续与黑社会接触。请问小李的做法对不对？  对（1 ） 不对（2 ）
11,1,1,7,legal,10.735,21. 潘某与刘某相约出游，潘某在长江边拾得一块奇石，爱不释手，拟带回家。刘某说，《物权法》规定河流属于国家所有，这一行为可能属于侵占国家财产。“潘某可以取得奇石的所有权。”这个说法对不对 ？          对（1 ） 不对（2 ）
11,1,1,7,moral,3.58,22.小明看到歹徒行凶抢劫，于是打电话报警。请问小明的做法对不对？   对（ 1） 不对（2 ）
11,1,1,7,common,8.501,23.张三、李四、王五三个人比体重，三人体重各不相同，已知王五是最轻的，那么张三与李四两人有一个是体重最重的，这个说法对不对？   对（1 ） 不对（ 2）
11,1,2,8,legal,11.308,24.刘某种植西瓜，收获季节病故。好友刁某联系不上刘某家人，便为刘某办理后事，并将西瓜卖出。事后刁某认为自己应得劳务费5000元。“刁某可以请求刘某家人支付劳务费5000元。”  可以（1 ） 不可以（2 ）
11,1,1,8,moral,5.234,25.小张是游泳健将，看到公园里有人失足跌下湖里，于是赶紧下水救人，请问小张的做法对不对？           对（1 ）  不对（2 ）
11,1,1,8,common,5.721,26.小刘与小张、小李三人比赛唱歌，小刘得了第一名，请问小刘赢了小张，这个说法对不对？           对（ 1） 不对（2 ）
11,1,1,9,legal,12.161,27.甲忘带钥匙，邻居乙建议甲从自家阳台爬回家，并提供绳索以备不测。甲在攀越时绳索断裂，坠地受伤。“法院能否酌情让乙承担部分赔偿责任”   能（1 ） 不能（2 ）
11,1,2,9,moral,4.636,28.小明看到好朋友李四最近与王五走得很近，于是嫉妒王五，就在背后说王五的坏话。请问小明的做法应不应该？  应该（1 ） 不应该（2 ）
11,1,1,9,common,6.994,29.假设小明家热水沸腾的温度是100摄氏度，现在小明正在烧水，水沸腾了，请问此时水温度达到100摄氏度，这个说法对不对？              对（1 ）  不对（2 ）
11,1,2,10,legal,9.608,30.甲与乙结婚3年后，乙提出甲婚前谎称是海归博士且有车有房，乙婚后发现上当受骗并向法院请求确认婚姻无效。“乙的理由可以成立。”        可以（ 1） 不可以（2 ）
12,1,1,1,moral,8.678,"1.小王开车下班回家的路上邻居小孩因腹痛倒地,小王应该不应该送小回家或者去医院?                             应该(1)       不应该(2)  "
12,1,2,1,common,7.655,2.小李刚刚吃过了早饭，请问小李没吃饭，对吗？                    对（1 ）  不对（2 ）
12,1,1,1,legal,13.546,3.陈某家中失火，邻居家10岁的女孩刘某呼叫邻居救火，并取自家衣物参与扑火。在救火过程中，刘某手部烧伤，花去医疗费200元，衣物损失100元。“陈某应偿付刘某300元，而非200元” 这个说法对不对？             对（1 ） 不对（2 ）
12,1,1,2,moral,3.404,4.在公车上遇到怀孕9个月的孕妇，年轻人应不应该让座？              应该（ 1） 不应该（2  )
12,1,2,2,common,5.533,5.小明刚刚跑步去了。请问小明没有脚，对吗？                       对（1 ）  不对（ 2）
12,1,2,2,legal,46.413,6.乙替甲还了800借款，并对甲说：“这800元算给你了。”甲称将来一定还给乙。事后甲还了乙500元。后二人交恶，乙要求甲归还300元，甲认为乙已将800元给了自己于是要求乙退回500元。“甲无需再还300元”，这个说法对不对？  对（1 ） 不对（2 ）
12,1,1,3,moral,3.751, 7.小王捡到他人遗失的钱包后归还给失主，请问小王做的对不对？     对（1 ） 不对（ 2）
12,1,2,3,common,8.554,8.张三高度近视达900度，现在正在打乒乓球。请问张三没有戴眼镜对吗？  对（ 1） 不对（2 ）
12,1,1,3,legal,18.216,9.完全不能辨认自己行为的精神病人甲将自己的手表丢向路边，被乙拾得。 “乙应将手表还给甲” ，这个说法对不对？  对（1 ） 不对（2 ）
12,1,2,4,common,5.547,11.李四是土生土长的东北人，正在用家乡话给家人打电话。请问李四是不是在说闽南话？                   是（1 ） 不是（2 ）
12,1,1,4,legal,14.972,12.甲在乙承包的水库游泳，乙的雇工丙、丁误以为甲在偷鱼，于是将甲打伤。 “只能由乙承担赔偿责任，丙丁无需承担” ，这个说法对不对？   对（ 1） 不对（2 ）
12,1,1,4,moral,4.98,13.张三非常富有，看到汶川地震死了很多人，于是向灾区捐了款。请问张三的做法对不对？                   对（ 1） 不对（2 ）
12,1,1,5,common,10.452,14.小花、小明、小张三人进行100跑步决赛，小花跑了第三，那么小明不是第一名就是第二名，这个说法对不对？  对（1 ） 不对（2 ）
12,1,1,5,legal,19.413,15.甲将300本书送给乙，并约定乙不得转让给第三人，否则甲有权收回书。其后甲向乙交付了300本书。 “甲与乙的赠与合同有效，乙取得了书的所有权” ，这个说法对不对？     对（ 1） 不对（2 ）
12,1,1,5,moral,6.887,16.李四家住农村，在路边看到流浪猫很可怜，于是把猫带回家喂养。请问李四的做法对不对？                 对（ 1） 不对（2 ）
12,1,1,6,common,18.537,17.小张昨天对小明承诺：“如果明天天不下雨，我就带你去听音乐会。”今天他们两都去听音乐会了，请问今天没有下雨，这个说法对不对？    对（1 ） 不对（2 ）
12,1,2,6,legal,21.35,18.周某从某4S店买了1辆车，约定试用10天，试用期满后办理过户手续。试用期间，周某违反交规将李某撞成重伤。现周某无力赔偿。李某能否要求4S店赔偿？能(  1 )  不能(2   )
12,1,1,6,moral,12.001,19.小李看到好朋友王五和黑社会接触，并参与打群架，于是就劝阻王五继续与黑社会接触。请问小李的做法对不对？  对（1 ） 不对（2 ）
12,1,1,7,legal,14.515,21. 潘某与刘某相约出游，潘某在长江边拾得一块奇石，爱不释手，拟带回家。刘某说，《物权法》规定河流属于国家所有，这一行为可能属于侵占国家财产。“潘某可以取得奇石的所有权。”这个说法对不对 ？          对（1 ） 不对（2 ）
12,1,1,7,moral,4.325,22.小明看到歹徒行凶抢劫，于是打电话报警。请问小明的做法对不对？   对（ 1） 不对（2 ）
12,1,1,7,common,11.832,23.张三、李四、王五三个人比体重，三人体重各不相同，已知王五是最轻的，那么张三与李四两人有一个是体重最重的，这个说法对不对？   对（1 ） 不对（ 2）
12,1,2,8,legal,12.728,24.刘某种植西瓜，收获季节病故。好友刁某联系不上刘某家人，便为刘某办理后事，并将西瓜卖出。事后刁某认为自己应得劳务费5000元。“刁某可以请求刘某家人支付劳务费5000元。”  可以（1 ） 不可以（2 ）
12,1,1,8,moral,4.18,25.小张是游泳健将，看到公园里有人失足跌下湖里，于是赶紧下水救人，请问小张的做法对不对？           对（1 ）  不对（2 ）
12,1,1,8,common,9.717,26.小刘与小张、小李三人比赛唱歌，小刘得了第一名，请问小刘赢了小张，这个说法对不对？           对（ 1） 不对（2 ）
12,1,1,9,legal,19.37,27.甲忘带钥匙，邻居乙建议甲从自家阳台爬回家，并提供绳索以备不测。甲在攀越时绳索断裂，坠地受伤。“法院能否酌情让乙承担部分赔偿责任”   能（1 ） 不能（2 ）
12,1,2,9,moral,14.422,28.小明看到好朋友李四最近与王五走得很近，于是嫉妒王五，就在背后说王五的坏话。请问小明的做法应不应该？  应该（1 ） 不应该（2 ）
12,1,1,9,common,7.636,29.假设小明家热水沸腾的温度是100摄氏度，现在小明正在烧水，水沸腾了，请问此时水温度达到100摄氏度，这个说法对不对？              对（1 ）  不对（2 ）
12,1,2,10,legal,11.192,30.甲与乙结婚3年后，乙提出甲婚前谎称是海归博士且有车有房，乙婚后发现上当受骗并向法院请求确认婚姻无效。“乙的理由可以成立。”        可以（ 1） 不可以（2 ）
13,1,1,1,moral,3.345,"1.小王开车下班回家的路上邻居小孩因腹痛倒地,小王应该不应该送小回家或者去医院?                             应该(1)       不应该(2)  "
13,1,2,1,common,2.94,2.小李刚刚吃过了早饭，请问小李没吃饭，对吗？                    对（1 ）  不对（2 ）
13,1,1,1,legal,9.551,3.陈某家中失火，邻居家10岁的女孩刘某呼叫邻居救火，并取自家衣物参与扑火。在救火过程中，刘某手部烧伤，花去医疗费200元，衣物损失100元。“陈某应偿付刘某300元，而非200元” 这个说法对不对？             对（1 ） 不对（2 ）
13,1,1,2,moral,1.62,4.在公车上遇到怀孕9个月的孕妇，年轻人应不应该让座？              应该（ 1） 不应该（2  )
13,1,2,2,common,3.31,5.小明刚刚跑步去了。请问小明没有脚，对吗？                       对（1 ）  不对（ 2）
13,1,2,2,legal,7.274,6.乙替甲还了800借款，并对甲说：“这800元算给你了。”甲称将来一定还给乙。事后甲还了乙500元。后二人交恶，乙要求甲归还300元，甲认为乙已将800元给了自己于是要求乙退回500元。“甲无需再还300元”，这个说法对不对？  对（1 ） 不对（2 ）
13,1,2,3,common,2.906,8.张三高度近视达900度，现在正在打乒乓球。请问张三没有戴眼镜对吗？  对（ 1） 不对（2 ）
13,1,1,3,legal,4.167,9.完全不能辨认自己行为的精神病人甲将自己的手表丢向路边，被乙拾得。 “乙应将手表还给甲” ，这个说法对不对？  对（1 ） 不对（2 ）
13,1,2,4,common,4.142,11.李四是土生土长的东北人，正在用家乡话给家人打电话。请问李四是不是在说闽南话？                   是（1 ） 不是（2 ）
13,1,1,4,legal,10.881,12.甲在乙承包的水库游泳，乙的雇工丙、丁误以为甲在偷鱼，于是将甲打伤。 “只能由乙承担赔偿责任，丙丁无需承担” ，这个说法对不对？   对（ 1） 不对（2 ）
13,1,1,5,common,5.275,14.小花、小明、小张三人进行100跑步决赛，小花跑了第三，那么小明不是第一名就是第二名，这个说法对不对？  对（1 ） 不对（2 ）
13,1,1,5,legal,7.792,15.甲将300本书送给乙，并约定乙不得转让给第三人，否则甲有权收回书。其后甲向乙交付了300本书。 “甲与乙的赠与合同有效，乙取得了书的所有权” ，这个说法对不对？     对（ 1） 不对（2 ）
13,1,1,6,common,11.32,17.小张昨天对小明承诺：“如果明天天不下雨，我就带你去听音乐会。”今天他们两都去听音乐会了，请问今天没有下雨，这个说法对不对？    对（1 ） 不对（2 ）
13,1,2,6,legal,11.949,18.周某从某4S店买了1辆车，约定试用10天，试用期满后办理过户手续。试用期间，周某违反交规将李某撞成重伤。现周某无力赔偿。李某能否要求4S店赔偿？能(  1 )  不能(2   )
13,1,1,7,legal,11.788,21. 潘某与刘某相约出游，潘某在长江边拾得一块奇石，爱不释手，拟带回家。刘某说，《物权法》规定河流属于国家所有，这一行为可能属于侵占国家财产。“潘某可以取得奇石的所有权。”这个说法对不对 ？          对（1 ） 不对（2 ）
13,1,1,7,common,7.008,23.张三、李四、王五三个人比体重，三人体重各不相同，已知王五是最轻的，那么张三与李四两人有一个是体重最重的，这个说法对不对？   对（1 ） 不对（ 2）
13,1,2,8,legal,5.749,24.刘某种植西瓜，收获季节病故。好友刁某联系不上刘某家人，便为刘某办理后事，并将西瓜卖出。事后刁某认为自己应得劳务费5000元。“刁某可以请求刘某家人支付劳务费5000元。”  可以（1 ） 不可以（2 ）
13,1,1,8,common,4.36,26.小刘与小张、小李三人比赛唱歌，小刘得了第一名，请问小刘赢了小张，这个说法对不对？           对（ 1） 不对（2 ）
13,1,1,9,legal,7.13,27.甲忘带钥匙，邻居乙建议甲从自家阳台爬回家，并提供绳索以备不测。甲在攀越时绳索断裂，坠地受伤。“法院能否酌情让乙承担部分赔偿责任”   能（1 ） 不能（2 ）
13,1,1,9,common,5.231,29.假设小明家热水沸腾的温度是100摄氏度，现在小明正在烧水，水沸腾了，请问此时水温度达到100摄氏度，这个说法对不对？              对（1 ）  不对（2 ）
14,1,1,1,moral,8.372,"1.小王开车下班回家的路上邻居小孩因腹痛倒地,小王应该不应该送小回家或者去医院?                             应该(1)       不应该(2)  "
14,1,2,1,common,7.106,2.小李刚刚吃过了早饭，请问小李没吃饭，对吗？                    对（1 ）  不对（2 ）
14,1,1,1,legal,16.875,3.陈某家中失火，邻居家10岁的女孩刘某呼叫邻居救火，并取自家衣物参与扑火。在救火过程中，刘某手部烧伤，花去医疗费200元，衣物损失100元。“陈某应偿付刘某300元，而非200元” 这个说法对不对？             对（1 ） 不对（2 ）
14,1,1,2,moral,4.261,4.在公车上遇到怀孕9个月的孕妇，年轻人应不应该让座？              应该（ 1） 不应该（2  )
14,1,2,2,common,3.739,5.小明刚刚跑步去了。请问小明没有脚，对吗？                       对（1 ）  不对（ 2）
14,1,2,2,legal,45.532,6.乙替甲还了800借款，并对甲说：“这800元算给你了。”甲称将来一定还给乙。事后甲还了乙500元。后二人交恶，乙要求甲归还300元，甲认为乙已将800元给了自己于是要求乙退回500元。“甲无需再还300元”，这个说法对不对？  对（1 ） 不对（2 ）
14,1,1,3,moral,4.737, 7.小王捡到他人遗失的钱包后归还给失主，请问小王做的对不对？     对（1 ） 不对（ 2）
14,1,2,3,common,10.611,8.张三高度近视达900度，现在正在打乒乓球。请问张三没有戴眼镜对吗？  对（ 1） 不对（2 ）
14,1,1,3,legal,21.165,9.完全不能辨认自己行为的精神病人甲将自己的手表丢向路边，被乙拾得。 “乙应将手表还给甲” ，这个说法对不对？  对（1 ） 不对（2 ）
14,1,2,4,common,10.152,11.李四是土生土长的东北人，正在用家乡话给家人打电话。请问李四是不是在说闽南话？                   是（1 ） 不是（2 ）
14,1,1,4,legal,17.797,12.甲在乙承包的水库游泳，乙的雇工丙、丁误以为甲在偷鱼，于是将甲打伤。 “只能由乙承担赔偿责任，丙丁无需承担” ，这个说法对不对？   对（ 1） 不对（2 ）
14,1,1,4,moral,6.562,13.张三非常富有，看到汶川地震死了很多人，于是向灾区捐了款。请问张三的做法对不对？                   对（ 1） 不对（2 ）
14,1,1,5,common,10.681,14.小花、小明、小张三人进行100跑步决赛，小花跑了第三，那么小明不是第一名就是第二名，这个说法对不对？  对（1 ） 不对（2 ）
14,1,1,5,legal,25.023,15.甲将300本书送给乙，并约定乙不得转让给第三人，否则甲有权收回书。其后甲向乙交付了300本书。 “甲与乙的赠与合同有效，乙取得了书的所有权” ，这个说法对不对？     对（ 1） 不对（2 ）
14,1,1,5,moral,5.964,16.李四家住农村，在路边看到流浪猫很可怜，于是把猫带回家喂养。请问李四的做法对不对？                 对（ 1） 不对（2 ）
14,1,1,6,common,12.06,17.小张昨天对小明承诺：“如果明天天不下雨，我就带你去听音乐会。”今天他们两都去听音乐会了，请问今天没有下雨，这个说法对不对？    对（1 ） 不对（2 ）
14,1,2,6,legal,17.915,18.周某从某4S店买了1辆车，约定试用10天，试用期满后办理过户手续。试用期间，周某违反交规将李某撞成重伤。现周某无力赔偿。李某能否要求4S店赔偿？能(  1 )  不能(2   )
14,1,1,6,moral,8.538,19.小李看到好朋友王五和黑社会接触，并参与打群架，于是就劝阻王五继续与黑社会接触。请问小李的做法对不对？  对（1 ） 不对（2 ）
14,1,1,7,legal,27.795,21. 潘某与刘某相约出游，潘某在长江边拾得一块奇石，爱不释手，拟带回家。刘某说，《物权法》规定河流属于国家所有，这一行为可能属于侵占国家财产。“潘某可以取得奇石的所有权。”这个说法对不对 ？          对（1 ） 不对（2 ）
14,1,1,7,moral,3.71,22.小明看到歹徒行凶抢劫，于是打电话报警。请问小明的做法对不对？   对（ 1） 不对（2 ）
14,1,1,7,common,8.626,23.张三、李四、王五三个人比体重，三人体重各不相同，已知王五是最轻的，那么张三与李四两人有一个是体重最重的，这个说法对不对？   对（1 ） 不对（ 2）
14,1,2,8,legal,11.085,24.刘某种植西瓜，收获季节病故。好友刁某联系不上刘某家人，便为刘某办理后事，并将西瓜卖出。事后刁某认为自己应得劳务费5000元。“刁某可以请求刘某家人支付劳务费5000元。”  可以（1 ） 不可以（2 ）
14,1,1,8,moral,4.516,25.小张是游泳健将，看到公园里有人失足跌下湖里，于是赶紧下水救人，请问小张的做法对不对？           对（1 ）  不对（2 ）
14,1,1,8,common,10.078,26.小刘与小张、小李三人比赛唱歌，小刘得了第一名，请问小刘赢了小张，这个说法对不对？           对（ 1） 不对（2 ）
14,1,1,9,legal,7.486,27.甲忘带钥匙，邻居乙建议甲从自家阳台爬回家，并提供绳索以备不测。甲在攀越时绳索断裂，坠地受伤。“法院能否酌情让乙承担部分赔偿责任”   能（1 ） 不能（2 ）
14,1,2,9,moral,5.664,28.小明看到好朋友李四最近与王五走得很近，于是嫉妒王五，就在背后说王五的坏话。请问小明的做法应不应该？  应该（1 ） 不应该（2 ）
14,1,1,9,common,7.312,29.假设小明家热水沸腾的温度是100摄氏度，现在小明正在烧水，水沸腾了，请问此时水温度达到100摄氏度，这个说法对不对？              对（1 ）  不对（2 ）
14,1,2,10,legal,15.469,30.甲与乙结婚3年后，乙提出甲婚前谎称是海归博士且有车有房，乙婚后发现上当受骗并向法院请求确认婚姻无效。“乙的理由可以成立。”        可以（ 1） 不可以（2 ）
15,1,1,1,moral,7.268,"1.小王开车下班回家的路上邻居小孩因腹痛倒地,小王应该不应该送小回家或者去医院?                             应该(1)       不应该(2)  "
15,1,2,1,common,7.799,2.小李刚刚吃过了早饭，请问小李没吃饭，对吗？                    对（1 ）  不对（2 ）
15,1,1,1,legal,27.523,3.陈某家中失火，邻居家10岁的女孩刘某呼叫邻居救火，并取自家衣物参与扑火。在救火过程中，刘某手部烧伤，花去医疗费200元，衣物损失100元。“陈某应偿付刘某300元，而非200元” 这个说法对不对？             对（1 ） 不对（2 ）
15,1,1,2,moral,6.53,4.在公车上遇到怀孕9个月的孕妇，年轻人应不应该让座？              应该（ 1） 不应该（2  )
15,1,2,2,common,4.299,5.小明刚刚跑步去了。请问小明没有脚，对吗？                       对（1 ）  不对（ 2）
15,1,2,2,legal,26.559,6.乙替甲还了800借款，并对甲说：“这800元算给你了。”甲称将来一定还给乙。事后甲还了乙500元。后二人交恶，乙要求甲归还300元，甲认为乙已将800元给了自己于是要求乙退回500元。“甲无需再还300元”，这个说法对不对？  对（1 ） 不对（2 ）
15,1,1,3,moral,5.748, 7.小王捡到他人遗失的钱包后归还给失主，请问小王做的对不对？     对（1 ） 不对（ 2）
15,1,2,3,common,7.533,8.张三高度近视达900度，现在正在打乒乓球。请问张三没有戴眼镜对吗？  对（ 1） 不对（2 ）
15,1,1,3,legal,12.14,9.完全不能辨认自己行为的精神病人甲将自己的手表丢向路边，被乙拾得。 “乙应将手表还给甲” ，这个说法对不对？  对（1 ） 不对（2 ）
15,1,2,4,common,5.506,11.李四是土生土长的东北人，正在用家乡话给家人打电话。请问李四是不是在说闽南话？                   是（1 ） 不是（2 ）
15,1,1,4,legal,48.508,12.甲在乙承包的水库游泳，乙的雇工丙、丁误以为甲在偷鱼，于是将甲打伤。 “只能由乙承担赔偿责任，丙丁无需承担” ，这个说法对不对？   对（ 1） 不对（2 ）
15,1,1,4,moral,3.856,13.张三非常富有，看到汶川地震死了很多人，于是向灾区捐了款。请问张三的做法对不对？                   对（ 1） 不对（2 ）
15,1,1,5,common,15.27,14.小花、小明、小张三人进行100跑步决赛，小花跑了第三，那么小明不是第一名就是第二名，这个说法对不对？  对（1 ） 不对（2 ）
15,1,1,5,legal,28.593,15.甲将300本书送给乙，并约定乙不得转让给第三人，否则甲有权收回书。其后甲向乙交付了300本书。 “甲与乙的赠与合同有效，乙取得了书的所有权” ，这个说法对不对？     对（ 1） 不对（2 ）
15,1,1,5,moral,6.147,16.李四家住农村，在路边看到流浪猫很可怜，于是把猫带回家喂养。请问李四的做法对不对？                 对（ 1） 不对（2 ）
15,1,1,6,common,29.708,17.小张昨天对小明承诺：“如果明天天不下雨，我就带你去听音乐会。”今天他们两都去听音乐会了，请问今天没有下雨，这个说法对不对？    对（1 ） 不对（2 ）
15,1,2,6,legal,21.033,18.周某从某4S店买了1辆车，约定试用10天，试用期满后办理过户手续。试用期间，周某违反交规将李某撞成重伤。现周某无力赔偿。李某能否要求4S店赔偿？能(  1 )  不能(2   )
15,1,1,6,moral,21.52,19.小李看到好朋友王五和黑社会接触，并参与打群架，于是就劝阻王五继续与黑社会接触。请问小李的做法对不对？  对（1 ） 不对（2 ）
15,1,1,7,legal,32.415,21. 潘某与刘某相约出游，潘某在长江边拾得一块奇石，爱不释手，拟带回家。刘某说，《物权法》规定河流属于国家所有，这一行为可能属于侵占国家财产。“潘某可以取得奇石的所有权。”这个说法对不对 ？          对（1 ） 不对（2 ）
15,1,1,7,moral,9.068,22.小明看到歹徒行凶抢劫，于是打电话报警。请问小明的做法对不对？   对（ 1） 不对（2 ）
15,1,1,7,common,15.477,23.张三、李四、王五三个人比体重，三人体重各不相同，已知王五是最轻的，那么张三与李四两人有一个是体重最重的，这个说法对不对？   对（1 ） 不对（ 2）
15,1,2,8,legal,19.944,24.刘某种植西瓜，收获季节病故。好友刁某联系不上刘某家人，便为刘某办理后事，并将西瓜卖出。事后刁某认为自己应得劳务费5000元。“刁某可以请求刘某家人支付劳务费5000元。”  可以（1 ） 不可以（2 ）
15,1,1,8,moral,6.973,25.小张是游泳健将，看到公园里有人失足跌下湖里，于是赶紧下水救人，请问小张的做法对不对？           对（1 ）  不对（2 ）
15,1,1,8,common,10.244,26.小刘与小张、小李三人比赛唱歌，小刘得了第一名，请问小刘赢了小张，这个说法对不对？           对（ 1） 不对（2 ）
15,1,1,9,legal,10.557,27.甲忘带钥匙，邻居乙建议甲从自家阳台爬回家，并提供绳索以备不测。甲在攀越时绳索断裂，坠地受伤。“法院能否酌情让乙承担部分赔偿责任”   能（1 ） 不能（2 ）
15,1,2,9,moral,8.377,28.小明看到好朋友李四最近与王五走得很近，于是嫉妒王五，就在背后说王五的坏话。请问小明的做法应不应该？  应该（1 ） 不应该（2 ）
15,1,1,9,common,14.149,29.假设小明家热水沸腾的温度是100摄氏度，现在小明正在烧水，水沸腾了，请问此时水温度达到100摄氏度，这个说法对不对？              对（1 ）  不对（2 ）
15,1,2,10,legal,8.902,30.甲与乙结婚3年后，乙提出甲婚前谎称是海归博士且有车有房，乙婚后发现上当受骗并向法院请求确认婚姻无效。“乙的理由可以成立。”        可以（ 1） 不可以（2 ）
16,1,1,1,moral,10.726,"1.小王开车下班回家的路上邻居小孩因腹痛倒地,小王应该不应该送小回家或者去医院?                             应该(1)       不应该(2)  "
16,1,2,1,common,5.795,2.小李刚刚吃过了早饭，请问小李没吃饭，对吗？                    对（1 ）  不对（2 ）
16,1,1,1,legal,27.097,3.陈某家中失火，邻居家10岁的女孩刘某呼叫邻居救火，并取自家衣物参与扑火。在救火过程中，刘某手部烧伤，花去医疗费200元，衣物损失100元。“陈某应偿付刘某300元，而非200元” 这个说法对不对？             对（1 ） 不对（2 ）
16,1,1,2,moral,5.897,4.在公车上遇到怀孕9个月的孕妇，年轻人应不应该让座？              应该（ 1） 不应该（2  )
16,1,2,2,common,3.684,5.小明刚刚跑步去了。请问小明没有脚，对吗？                       对（1 ）  不对（ 2）
16,1,2,2,legal,20.193,6.乙替甲还了800借款，并对甲说：“这800元算给你了。”甲称将来一定还给乙。事后甲还了乙500元。后二人交恶，乙要求甲归还300元，甲认为乙已将800元给了自己于是要求乙退回500元。“甲无需再还300元”，这个说法对不对？  对（1 ） 不对（2 ）
16,1,1,3,moral,9.771, 7.小王捡到他人遗失的钱包后归还给失主，请问小王做的对不对？     对（1 ） 不对（ 2）
16,1,2,3,common,7.912,8.张三高度近视达900度，现在正在打乒乓球。请问张三没有戴眼镜对吗？  对（ 1） 不对（2 ）
16,1,1,3,legal,19.623,9.完全不能辨认自己行为的精神病人甲将自己的手表丢向路边，被乙拾得。 “乙应将手表还给甲” ，这个说法对不对？  对（1 ） 不对（2 ）
16,1,2,4,common,5.17,11.李四是土生土长的东北人，正在用家乡话给家人打电话。请问李四是不是在说闽南话？                   是（1 ） 不是（2 ）
16,1,1,4,legal,15.595,12.甲在乙承包的水库游泳，乙的雇工丙、丁误以为甲在偷鱼，于是将甲打伤。 “只能由乙承担赔偿责任，丙丁无需承担” ，这个说法对不对？   对（ 1） 不对（2 ）
16,1,1,4,moral,5.561,13.张三非常富有，看到汶川地震死了很多人，于是向灾区捐了款。请问张三的做法对不对？                   对（ 1） 不对（2 ）
16,1,1,5,common,24.026,14.小花、小明、小张三人进行100跑步决赛，小花跑了第三，那么小明不是第一名就是第二名，这个说法对不对？  对（1 ） 不对（2 ）
16,1,1,5,legal,21.311,15.甲将300本书送给乙，并约定乙不得转让给第三人，否则甲有权收回书。其后甲向乙交付了300本书。 “甲与乙的赠与合同有效，乙取得了书的所有权” ，这个说法对不对？     对（ 1） 不对（2 ）
16,1,1,5,moral,11.154,16.李四家住农村，在路边看到流浪猫很可怜，于是把猫带回家喂养。请问李四的做法对不对？                 对（ 1） 不对（2 ）
16,1,1,6,common,40.134,17.小张昨天对小明承诺：“如果明天天不下雨，我就带你去听音乐会。”今天他们两都去听音乐会了，请问今天没有下雨，这个说法对不对？    对（1 ） 不对（2 ）
16,1,2,6,legal,47.32,18.周某从某4S店买了1辆车，约定试用10天，试用期满后办理过户手续。试用期间，周某违反交规将李某撞成重伤。现周某无力赔偿。李某能否要求4S店赔偿？能(  1 )  不能(2   )
16,1,1,6,moral,9.021,19.小李看到好朋友王五和黑社会接触，并参与打群架，于是就劝阻王五继续与黑社会接触。请问小李的做法对不对？  对（1 ） 不对（2 ）
16,1,1,7,legal,12.458,21. 潘某与刘某相约出游，潘某在长江边拾得一块奇石，爱不释手，拟带回家。刘某说，《物权法》规定河流属于国家所有，这一行为可能属于侵占国家财产。“潘某可以取得奇石的所有权。”这个说法对不对 ？          对（1 ） 不对（2 ）
16,1,1,7,moral,5.528,22.小明看到歹徒行凶抢劫，于是打电话报警。请问小明的做法对不对？   对（ 1） 不对（2 ）
16,1,1,7,common,13.13,23.张三、李四、王五三个人比体重，三人体重各不相同，已知王五是最轻的，那么张三与李四两人有一个是体重最重的，这个说法对不对？   对（1 ） 不对（ 2）
16,1,2,8,legal,22.317,24.刘某种植西瓜，收获季节病故。好友刁某联系不上刘某家人，便为刘某办理后事，并将西瓜卖出。事后刁某认为自己应得劳务费5000元。“刁某可以请求刘某家人支付劳务费5000元。”  可以（1 ） 不可以（2 ）
16,1,1,8,moral,8.608,25.小张是游泳健将，看到公园里有人失足跌下湖里，于是赶紧下水救人，请问小张的做法对不对？           对（1 ）  不对（2 ）
16,1,1,8,common,9.62,26.小刘与小张、小李三人比赛唱歌，小刘得了第一名，请问小刘赢了小张，这个说法对不对？           对（ 1） 不对（2 ）
16,1,1,9,legal,29.279,27.甲忘带钥匙，邻居乙建议甲从自家阳台爬回家，并提供绳索以备不测。甲在攀越时绳索断裂，坠地受伤。“法院能否酌情让乙承担部分赔偿责任”   能（1 ） 不能（2 ）
16,1,2,9,moral,8.725,28.小明看到好朋友李四最近与王五走得很近，于是嫉妒王五，就在背后说王五的坏话。请问小明的做法应不应该？  应该（1 ） 不应该（2 ）
16,1,1,9,common,9.651,29.假设小明家热水沸腾的温度是100摄氏度，现在小明正在烧水，水沸腾了，请问此时水温度达到100摄氏度，这个说法对不对？              对（1 ）  不对（2 ）
16,1,2,10,legal,19.708,30.甲与乙结婚3年后，乙提出甲婚前谎称是海归博士且有车有房，乙婚后发现上当受骗并向法院请求确认婚姻无效。“乙的理由可以成立。”        可以（ 1） 不可以（2 ）
17,1,1,1,moral,11.151,"1.小王开车下班回家的路上邻居小孩因腹痛倒地,小王应该不应该送小回家或者去医院?                             应该(1)       不应该(2)  "
17,1,2,1,common,6.131,2.小李刚刚吃过了早饭，请问小李没吃饭，对吗？                    对（1 ）  不对（2 ）
17,1,1,1,legal,18.947,3.陈某家中失火，邻居家10岁的女孩刘某呼叫邻居救火，并取自家衣物参与扑火。在救火过程中，刘某手部烧伤，花去医疗费200元，衣物损失100元。“陈某应偿付刘某300元，而非200元” 这个说法对不对？             对（1 ） 不对（2 ）
17,1,1,2,moral,3.768,4.在公车上遇到怀孕9个月的孕妇，年轻人应不应该让座？              应该（ 1） 不应该（2  )
17,1,2,2,common,4.138,5.小明刚刚跑步去了。请问小明没有脚，对吗？                       对（1 ）  不对（ 2）
17,1,2,2,legal,35.668,6.乙替甲还了800借款，并对甲说：“这800元算给你了。”甲称将来一定还给乙。事后甲还了乙500元。后二人交恶，乙要求甲归还300元，甲认为乙已将800元给了自己于是要求乙退回500元。“甲无需再还300元”，这个说法对不对？  对（1 ） 不对（2 ）
17,1,1,3,moral,3.181, 7.小王捡到他人遗失的钱包后归还给失主，请问小王做的对不对？     对（1 ） 不对（ 2）
17,1,2,3,common,12.487,8.张三高度近视达900度，现在正在打乒乓球。请问张三没有戴眼镜对吗？  对（ 1） 不对（2 ）
17,1,1,3,legal,11.908,9.完全不能辨认自己行为的精神病人甲将自己的手表丢向路边，被乙拾得。 “乙应将手表还给甲” ，这个说法对不对？  对（1 ） 不对（2 ）
17,1,2,4,common,12.412,11.李四是土生土长的东北人，正在用家乡话给家人打电话。请问李四是不是在说闽南话？                   是（1 ） 不是（2 ）
17,1,1,4,legal,13.78,12.甲在乙承包的水库游泳，乙的雇工丙、丁误以为甲在偷鱼，于是将甲打伤。 “只能由乙承担赔偿责任，丙丁无需承担” ，这个说法对不对？   对（ 1） 不对（2 ）
17,1,1,4,moral,3.677,13.张三非常富有，看到汶川地震死了很多人，于是向灾区捐了款。请问张三的做法对不对？                   对（ 1） 不对（2 ）
17,1,1,5,common,12.29,14.小花、小明、小张三人进行100跑步决赛，小花跑了第三，那么小明不是第一名就是第二名，这个说法对不对？  对（1 ） 不对（2 ）
17,1,1,5,legal,14.768,15.甲将300本书送给乙，并约定乙不得转让给第三人，否则甲有权收回书。其后甲向乙交付了300本书。 “甲与乙的赠与合同有效，乙取得了书的所有权” ，这个说法对不对？     对（ 1） 不对（2 ）
17,1,1,5,moral,8.575,16.李四家住农村，在路边看到流浪猫很可怜，于是把猫带回家喂养。请问李四的做法对不对？                 对（ 1） 不对（2 ）
17,1,1,6,common,42.668,17.小张昨天对小明承诺：“如果明天天不下雨，我就带你去听音乐会。”今天他们两都去听音乐会了，请问今天没有下雨，这个说法对不对？    对（1 ） 不对（2 ）
17,1,2,6,legal,13.678,18.周某从某4S店买了1辆车，约定试用10天，试用期满后办理过户手续。试用期间，周某违反交规将李某撞成重伤。现周某无力赔偿。李某能否要求4S店赔偿？能(  1 )  不能(2   )
17,1,1,6,moral,6.675,19.小李看到好朋友王五和黑社会接触，并参与打群架，于是就劝阻王五继续与黑社会接触。请问小李的做法对不对？  对（1 ） 不对（2 ）
17,1,1,7,legal,35.501,21. 潘某与刘某相约出游，潘某在长江边拾得一块奇石，爱不释手，拟带回家。刘某说，《物权法》规定河流属于国家所有，这一行为可能属于侵占国家财产。“潘某可以取得奇石的所有权。”这个说法对不对 ？          对（1 ） 不对（2 ）
17,1,1,7,moral,3.044,22.小明看到歹徒行凶抢劫，于是打电话报警。请问小明的做法对不对？   对（ 1） 不对（2 ）
17,1,1,7,common,13.956,23.张三、李四、王五三个人比体重，三人体重各不相同，已知王五是最轻的，那么张三与李四两人有一个是体重最重的，这个说法对不对？   对（1 ） 不对（ 2）
17,1,2,8,legal,30.427,24.刘某种植西瓜，收获季节病故。好友刁某联系不上刘某家人，便为刘某办理后事，并将西瓜卖出。事后刁某认为自己应得劳务费5000元。“刁某可以请求刘某家人支付劳务费5000元。”  可以（1 ） 不可以（2 ）
17,1,1,8,moral,6.386,25.小张是游泳健将，看到公园里有人失足跌下湖里，于是赶紧下水救人，请问小张的做法对不对？           对（1 ）  不对（2 ）
17,1,1,8,common,11.105,26.小刘与小张、小李三人比赛唱歌，小刘得了第一名，请问小刘赢了小张，这个说法对不对？           对（ 1） 不对（2 ）
17,1,1,9,legal,10.334,27.甲忘带钥匙，邻居乙建议甲从自家阳台爬回家，并提供绳索以备不测。甲在攀越时绳索断裂，坠地受伤。“法院能否酌情让乙承担部分赔偿责任”   能（1 ） 不能（2 ）
17,1,2,9,moral,7.187,28.小明看到好朋友李四最近与王五走得很近，于是嫉妒王五，就在背后说王五的坏话。请问小明的做法应不应该？  应该（1 ） 不应该（2 ）
17,1,1,9,common,14.961,29.假设小明家热水沸腾的温度是100摄氏度，现在小明正在烧水，水沸腾了，请问此时水温度达到100摄氏度，这个说法对不对？              对（1 ）  不对（2 ）
17,1,2,10,legal,8.898,30.甲与乙结婚3年后，乙提出甲婚前谎称是海归博士且有车有房，乙婚后发现上当受骗并向法院请求确认婚姻无效。“乙的理由可以成立。”        可以（ 1） 不可以（2 ）
18,1,1,1,moral,8.958,"1.小王开车下班回家的路上邻居小孩因腹痛倒地,小王应该不应该送小回家或者去医院?                             应该(1)       不应该(2)  "
18,1,2,1,common,6.235,2.小李刚刚吃过了早饭，请问小李没吃饭，对吗？                    对（1 ）  不对（2 ）
18,1,1,1,legal,17.76,3.陈某家中失火，邻居家10岁的女孩刘某呼叫邻居救火，并取自家衣物参与扑火。在救火过程中，刘某手部烧伤，花去医疗费200元，衣物损失100元。“陈某应偿付刘某300元，而非200元” 这个说法对不对？             对（1 ） 不对（2 ）
18,1,1,2,moral,4.285,4.在公车上遇到怀孕9个月的孕妇，年轻人应不应该让座？              应该（ 1） 不应该（2  )
18,1,2,2,common,7.266,5.小明刚刚跑步去了。请问小明没有脚，对吗？                       对（1 ）  不对（ 2）
18,1,2,2,legal,40.757,6.乙替甲还了800借款，并对甲说：“这800元算给你了。”甲称将来一定还给乙。事后甲还了乙500元。后二人交恶，乙要求甲归还300元，甲认为乙已将800元给了自己于是要求乙退回500元。“甲无需再还300元”，这个说法对不对？  对（1 ） 不对（2 ）
18,1,1,3,moral,3.734, 7.小王捡到他人遗失的钱包后归还给失主，请问小王做的对不对？     对（1 ） 不对（ 2）
18,1,2,3,common,13.425,8.张三高度近视达900度，现在正在打乒乓球。请问张三没有戴眼镜对吗？  对（ 1） 不对（2 ）
18,1,1,3,legal,11.656,9.完全不能辨认自己行为的精神病人甲将自己的手表丢向路边，被乙拾得。 “乙应将手表还给甲” ，这个说法对不对？  对（1 ） 不对（2 ）
18,1,2,4,common,13.977,11.李四是土生土长的东北人，正在用家乡话给家人打电话。请问李四是不是在说闽南话？                   是（1 ） 不是（2 ）
18,1,1,4,legal,22.489,12.甲在乙承包的水库游泳，乙的雇工丙、丁误以为甲在偷鱼，于是将甲打伤。 “只能由乙承担赔偿责任，丙丁无需承担” ，这个说法对不对？   对（ 1） 不对（2 ）
18,1,1,4,moral,8.149,13.张三非常富有，看到汶川地震死了很多人，于是向灾区捐了款。请问张三的做法对不对？                   对（ 1） 不对（2 ）
18,1,1,5,common,11.484,14.小花、小明、小张三人进行100跑步决赛，小花跑了第三，那么小明不是第一名就是第二名，这个说法对不对？  对（1 ） 不对（2 ）
18,1,1,5,legal,21.674,15.甲将300本书送给乙，并约定乙不得转让给第三人，否则甲有权收回书。其后甲向乙交付了300本书。 “甲与乙的赠与合同有效，乙取得了书的所有权” ，这个说法对不对？     对（ 1） 不对（2 ）
18,1,1,5,moral,10.783,16.李四家住农村，在路边看到流浪猫很可怜，于是把猫带回家喂养。请问李四的做法对不对？                 对（ 1） 不对（2 ）
18,1,1,6,common,13.721,17.小张昨天对小明承诺：“如果明天天不下雨，我就带你去听音乐会。”今天他们两都去听音乐会了，请问今天没有下雨，这个说法对不对？    对（1 ） 不对（2 ）
18,1,2,6,legal,35.588,18.周某从某4S店买了1辆车，约定试用10天，试用期满后办理过户手续。试用期间，周某违反交规将李某撞成重伤。现周某无力赔偿。李某能否要求4S店赔偿？能(  1 )  不能(2   )
18,1,1,6,moral,7.888,19.小李看到好朋友王五和黑社会接触，并参与打群架，于是就劝阻王五继续与黑社会接触。请问小李的做法对不对？  对（1 ） 不对（2 ）
18,1,1,7,legal,21.213,21. 潘某与刘某相约出游，潘某在长江边拾得一块奇石，爱不释手，拟带回家。刘某说，《物权法》规定河流属于国家所有，这一行为可能属于侵占国家财产。“潘某可以取得奇石的所有权。”这个说法对不对 ？          对（1 ） 不对（2 ）
18,1,1,7,moral,13.381,22.小明看到歹徒行凶抢劫，于是打电话报警。请问小明的做法对不对？   对（ 1） 不对（2 ）
18,1,1,7,common,13.085,23.张三、李四、王五三个人比体重，三人体重各不相同，已知王五是最轻的，那么张三与李四两人有一个是体重最重的，这个说法对不对？   对（1 ） 不对（ 2）
18,1,2,8,legal,19.146,24.刘某种植西瓜，收获季节病故。好友刁某联系不上刘某家人，便为刘某办理后事，并将西瓜卖出。事后刁某认为自己应得劳务费5000元。“刁某可以请求刘某家人支付劳务费5000元。”  可以（1 ） 不可以（2 ）
18,1,1,8,moral,6.11,25.小张是游泳健将，看到公园里有人失足跌下湖里，于是赶紧下水救人，请问小张的做法对不对？           对（1 ）  不对（2 ）
18,1,1,8,common,7.737,26.小刘与小张、小李三人比赛唱歌，小刘得了第一名，请问小刘赢了小张，这个说法对不对？           对（ 1） 不对（2 ）
18,1,1,9,legal,9.184,27.甲忘带钥匙，邻居乙建议甲从自家阳台爬回家，并提供绳索以备不测。甲在攀越时绳索断裂，坠地受伤。“法院能否酌情让乙承担部分赔偿责任”   能（1 ） 不能（2 ）
18,1,2,9,moral,7.277,28.小明看到好朋友李四最近与王五走得很近，于是嫉妒王五，就在背后说王五的坏话。请问小明的做法应不应该？  应该（1 ） 不应该（2 ）
18,1,1,9,common,9.087,29.假设小明家热水沸腾的温度是100摄氏度，现在小明正在烧水，水沸腾了，请问此时水温度达到100摄氏度，这个说法对不对？              对（1 ）  不对（2 ）
18,1,2,10,legal,8.247,30.甲与乙结婚3年后，乙提出甲婚前谎称是海归博士且有车有房，乙婚后发现上当受骗并向法院请求确认婚姻无效。“乙的理由可以成立。”        可以（ 1） 不可以（2 ）
19,1,1,1,moral,10.115,"1.小王开车下班回家的路上邻居小孩因腹痛倒地,小王应该不应该送小回家或者去医院?                             应该(1)       不应该(2)  "
19,1,2,1,common,9.969,2.小李刚刚吃过了早饭，请问小李没吃饭，对吗？                    对（1 ）  不对（2 ）
19,1,1,1,legal,35.893,3.陈某家中失火，邻居家10岁的女孩刘某呼叫邻居救火，并取自家衣物参与扑火。在救火过程中，刘某手部烧伤，花去医疗费200元，衣物损失100元。“陈某应偿付刘某300元，而非200元” 这个说法对不对？             对（1 ） 不对（2 ）
19,1,1,2,moral,4.869,4.在公车上遇到怀孕9个月的孕妇，年轻人应不应该让座？              应该（ 1） 不应该（2  )
19,1,2,2,common,7.138,5.小明刚刚跑步去了。请问小明没有脚，对吗？                       对（1 ）  不对（ 2）
19,1,2,2,legal,111.265,6.乙替甲还了800借款，并对甲说：“这800元算给你了。”甲称将来一定还给乙。事后甲还了乙500元。后二人交恶，乙要求甲归还300元，甲认为乙已将800元给了自己于是要求乙退回500元。“甲无需再还300元”，这个说法对不对？  对（1 ） 不对（2 ）
19,1,1,3,moral,4.942, 7.小王捡到他人遗失的钱包后归还给失主，请问小王做的对不对？     对（1 ） 不对（ 2）
19,1,2,3,common,13.335,8.张三高度近视达900度，现在正在打乒乓球。请问张三没有戴眼镜对吗？  对（ 1） 不对（2 ）
19,1,1,3,legal,18.21,9.完全不能辨认自己行为的精神病人甲将自己的手表丢向路边，被乙拾得。 “乙应将手表还给甲” ，这个说法对不对？  对（1 ） 不对（2 ）
19,1,2,4,common,10.231,11.李四是土生土长的东北人，正在用家乡话给家人打电话。请问李四是不是在说闽南话？                   是（1 ） 不是（2 ）
19,1,1,4,legal,42.031,12.甲在乙承包的水库游泳，乙的雇工丙、丁误以为甲在偷鱼，于是将甲打伤。 “只能由乙承担赔偿责任，丙丁无需承担” ，这个说法对不对？   对（ 1） 不对（2 ）
19,1,1,4,moral,7.9,13.张三非常富有，看到汶川地震死了很多人，于是向灾区捐了款。请问张三的做法对不对？                   对（ 1） 不对（2 ）
19,1,1,5,common,16.181,14.小花、小明、小张三人进行100跑步决赛，小花跑了第三，那么小明不是第一名就是第二名，这个说法对不对？  对（1 ） 不对（2 ）
19,1,1,5,legal,29.347,15.甲将300本书送给乙，并约定乙不得转让给第三人，否则甲有权收回书。其后甲向乙交付了300本书。 “甲与乙的赠与合同有效，乙取得了书的所有权” ，这个说法对不对？     对（ 1） 不对（2 ）
19,1,1,5,moral,8.062,16.李四家住农村，在路边看到流浪猫很可怜，于是把猫带回家喂养。请问李四的做法对不对？                 对（ 1） 不对（2 ）
19,1,1,6,common,20.696,17.小张昨天对小明承诺：“如果明天天不下雨，我就带你去听音乐会。”今天他们两都去听音乐会了，请问今天没有下雨，这个说法对不对？    对（1 ） 不对（2 ）
19,1,2,6,legal,50.205,18.周某从某4S店买了1辆车，约定试用10天，试用期满后办理过户手续。试用期间，周某违反交规将李某撞成重伤。现周某无力赔偿。李某能否要求4S店赔偿？能(  1 )  不能(2   )
19,1,1,6,moral,36.107,19.小李看到好朋友王五和黑社会接触，并参与打群架，于是就劝阻王五继续与黑社会接触。请问小李的做法对不对？  对（1 ） 不对（2 ）
19,1,1,7,legal,38.26,21. 潘某与刘某相约出游，潘某在长江边拾得一块奇石，爱不释手，拟带回家。刘某说，《物权法》规定河流属于国家所有，这一行为可能属于侵占国家财产。“潘某可以取得奇石的所有权。”这个说法对不对 ？          对（1 ） 不对（2 ）
19,1,1,7,moral,9.338,22.小明看到歹徒行凶抢劫，于是打电话报警。请问小明的做法对不对？   对（ 1） 不对（2 ）
19,1,1,7,common,11.721,23.张三、李四、王五三个人比体重，三人体重各不相同，已知王五是最轻的，那么张三与李四两人有一个是体重最重的，这个说法对不对？   对（1 ） 不对（ 2）
19,1,2,8,legal,42.077,24.刘某种植西瓜，收获季节病故。好友刁某联系不上刘某家人，便为刘某办理后事，并将西瓜卖出。事后刁某认为自己应得劳务费5000元。“刁某可以请求刘某家人支付劳务费5000元。”  可以（1 ） 不可以（2 ）
19,1,1,8,moral,5.2,25.小张是游泳健将，看到公园里有人失足跌下湖里，于是赶紧下水救人，请问小张的做法对不对？           对（1 ）  不对（2 ）
19,1,1,8,common,12.239,26.小刘与小张、小李三人比赛唱歌，小刘得了第一名，请问小刘赢了小张，这个说法对不对？           对（ 1） 不对（2 ）
19,1,1,9,legal,22.951,27.甲忘带钥匙，邻居乙建议甲从自家阳台爬回家，并提供绳索以备不测。甲在攀越时绳索断裂，坠地受伤。“法院能否酌情让乙承担部分赔偿责任”   能（1 ） 不能（2 ）
19,1,2,9,moral,19.471,28.小明看到好朋友李四最近与王五走得很近，于是嫉妒王五，就在背后说王五的坏话。请问小明的做法应不应该？  应该（1 ） 不应该（2 ）
19,1,1,9,common,18.559,29.假设小明家热水沸腾的温度是100摄氏度，现在小明正在烧水，水沸腾了，请问此时水温度达到100摄氏度，这个说法对不对？              对（1 ）  不对（2 ）
19,1,2,10,legal,16.868,30.甲与乙结婚3年后，乙提出甲婚前谎称是海归博士且有车有房，乙婚后发现上当受骗并向法院请求确认婚姻无效。“乙的理由可以成立。”        可以（ 1） 不可以（2 ）
20,1,1,1,moral,6.407,"1.小王开车下班回家的路上邻居小孩因腹痛倒地,小王应该不应该送小回家或者去医院?                             应该(1)       不应该(2)  "
20,1,2,1,common,4.868,2.小李刚刚吃过了早饭，请问小李没吃饭，对吗？                    对（1 ）  不对（2 ）
20,1,1,1,legal,20.617,3.陈某家中失火，邻居家10岁的女孩刘某呼叫邻居救火，并取自家衣物参与扑火。在救火过程中，刘某手部烧伤，花去医疗费200元，衣物损失100元。“陈某应偿付刘某300元，而非200元” 这个说法对不对？             对（1 ） 不对（2 ）
20,1,1,2,moral,4.45,4.在公车上遇到怀孕9个月的孕妇，年轻人应不应该让座？              应该（ 1） 不应该（2  )
20,1,2,2,common,20.928,5.小明刚刚跑步去了。请问小明没有脚，对吗？                       对（1 ）  不对（ 2）
20,1,2,2,legal,27.562,6.乙替甲还了800借款，并对甲说：“这800元算给你了。”甲称将来一定还给乙。事后甲还了乙500元。后二人交恶，乙要求甲归还300元，甲认为乙已将800元给了自己于是要求乙退回500元。“甲无需再还300元”，这个说法对不对？  对（1 ） 不对（2 ）
20,1,1,3,moral,2.438, 7.小王捡到他人遗失的钱包后归还给失主，请问小王做的对不对？     对（1 ） 不对（ 2）
20,1,2,3,common,6.839,8.张三高度近视达900度，现在正在打乒乓球。请问张三没有戴眼镜对吗？  对（ 1） 不对（2 ）
20,1,1,3,legal,12.795,9.完全不能辨认自己行为的精神病人甲将自己的手表丢向路边，被乙拾得。 “乙应将手表还给甲” ，这个说法对不对？  对（1 ） 不对（2 ）
20,1,2,4,common,13.07,11.李四是土生土长的东北人，正在用家乡话给家人打电话。请问李四是不是在说闽南话？                   是（1 ） 不是（2 ）
20,1,1,4,legal,11.996,12.甲在乙承包的水库游泳，乙的雇工丙、丁误以为甲在偷鱼，于是将甲打伤。 “只能由乙承担赔偿责任，丙丁无需承担” ，这个说法对不对？   对（ 1） 不对（2 ）
20,1,1,4,moral,3.789,13.张三非常富有，看到汶川地震死了很多人，于是向灾区捐了款。请问张三的做法对不对？                   对（ 1） 不对（2 ）
20,1,1,5,common,10.661,14.小花、小明、小张三人进行100跑步决赛，小花跑了第三，那么小明不是第一名就是第二名，这个说法对不对？  对（1 ） 不对（2 ）
20,1,1,5,legal,19.58,15.甲将300本书送给乙，并约定乙不得转让给第三人，否则甲有权收回书。其后甲向乙交付了300本书。 “甲与乙的赠与合同有效，乙取得了书的所有权” ，这个说法对不对？     对（ 1） 不对（2 ）
20,1,1,5,moral,6.744,16.李四家住农村，在路边看到流浪猫很可怜，于是把猫带回家喂养。请问李四的做法对不对？                 对（ 1） 不对（2 ）
20,1,1,6,common,15.152,17.小张昨天对小明承诺：“如果明天天不下雨，我就带你去听音乐会。”今天他们两都去听音乐会了，请问今天没有下雨，这个说法对不对？    对（1 ） 不对（2 ）
20,1,2,6,legal,8.24,18.周某从某4S店买了1辆车，约定试用10天，试用期满后办理过户手续。试用期间，周某违反交规将李某撞成重伤。现周某无力赔偿。李某能否要求4S店赔偿？能(  1 )  不能(2   )
20,1,1,6,moral,23.283,19.小李看到好朋友王五和黑社会接触，并参与打群架，于是就劝阻王五继续与黑社会接触。请问小李的做法对不对？  对（1 ） 不对（2 ）
20,1,1,7,legal,16.638,21. 潘某与刘某相约出游，潘某在长江边拾得一块奇石，爱不释手，拟带回家。刘某说，《物权法》规定河流属于国家所有，这一行为可能属于侵占国家财产。“潘某可以取得奇石的所有权。”这个说法对不对 ？          对（1 ） 不对（2 ）
20,1,1,7,moral,3.272,22.小明看到歹徒行凶抢劫，于是打电话报警。请问小明的做法对不对？   对（ 1） 不对（2 ）
20,1,1,7,common,14.47,23.张三、李四、王五三个人比体重，三人体重各不相同，已知王五是最轻的，那么张三与李四两人有一个是体重最重的，这个说法对不对？   对（1 ） 不对（ 2）
20,1,2,8,legal,13.41,24.刘某种植西瓜，收获季节病故。好友刁某联系不上刘某家人，便为刘某办理后事，并将西瓜卖出。事后刁某认为自己应得劳务费5000元。“刁某可以请求刘某家人支付劳务费5000元。”  可以（1 ） 不可以（2 ）
20,1,1,8,moral,4.434,25.小张是游泳健将，看到公园里有人失足跌下湖里，于是赶紧下水救人，请问小张的做法对不对？           对（1 ）  不对（2 ）
20,1,1,8,common,7.673,26.小刘与小张、小李三人比赛唱歌，小刘得了第一名，请问小刘赢了小张，这个说法对不对？           对（ 1） 不对（2 ）
20,1,1,9,legal,26.099,27.甲忘带钥匙，邻居乙建议甲从自家阳台爬回家，并提供绳索以备不测。甲在攀越时绳索断裂，坠地受伤。“法院能否酌情让乙承担部分赔偿责任”   能（1 ） 不能（2 ）
20,1,2,9,moral,5.036,28.小明看到好朋友李四最近与王五走得很近，于是嫉妒王五，就在背后说王五的坏话。请问小明的做法应不应该？  应该（1 ） 不应该（2 ）
20,1,1,9,common,8.25,29.假设小明家热水沸腾的温度是100摄氏度，现在小明正在烧水，水沸腾了，请问此时水温度达到100摄氏度，这个说法对不对？              对（1 ）  不对（2 ）
20,1,2,10,legal,10.757,30.甲与乙结婚3年后，乙提出甲婚前谎称是海归博士且有车有房，乙婚后发现上当受骗并向法院请求确认婚姻无效。“乙的理由可以成立。”        可以（ 1） 不可以（2 ）
21,1,1,1,moral,12.799,"1.小王开车下班回家的路上邻居小孩因腹痛倒地,小王应该不应该送小回家或者去医院?                             应该(1)       不应该(2)  "
21,1,2,1,common,6.392,2.小李刚刚吃过了早饭，请问小李没吃饭，对吗？                    对（1 ）  不对（2 ）
21,1,1,1,legal,18.861,3.陈某家中失火，邻居家10岁的女孩刘某呼叫邻居救火，并取自家衣物参与扑火。在救火过程中，刘某手部烧伤，花去医疗费200元，衣物损失100元。“陈某应偿付刘某300元，而非200元” 这个说法对不对？             对（1 ） 不对（2 ）
21,1,1,2,moral,6.102,4.在公车上遇到怀孕9个月的孕妇，年轻人应不应该让座？              应该（ 1） 不应该（2  )
21,1,2,2,common,5.392,5.小明刚刚跑步去了。请问小明没有脚，对吗？                       对（1 ）  不对（ 2）
21,1,2,2,legal,24.847,6.乙替甲还了800借款，并对甲说：“这800元算给你了。”甲称将来一定还给乙。事后甲还了乙500元。后二人交恶，乙要求甲归还300元，甲认为乙已将800元给了自己于是要求乙退回500元。“甲无需再还300元”，这个说法对不对？  对（1 ） 不对（2 ）
21,1,1,3,moral,11.515, 7.小王捡到他人遗失的钱包后归还给失主，请问小王做的对不对？     对（1 ） 不对（ 2）
21,1,2,3,common,13.448,8.张三高度近视达900度，现在正在打乒乓球。请问张三没有戴眼镜对吗？  对（ 1） 不对（2 ）
21,1,1,3,legal,24.5,9.完全不能辨认自己行为的精神病人甲将自己的手表丢向路边，被乙拾得。 “乙应将手表还给甲” ，这个说法对不对？  对（1 ） 不对（2 ）
21,1,2,4,common,11.25,11.李四是土生土长的东北人，正在用家乡话给家人打电话。请问李四是不是在说闽南话？                   是（1 ） 不是（2 ）
21,1,1,4,legal,22.049,12.甲在乙承包的水库游泳，乙的雇工丙、丁误以为甲在偷鱼，于是将甲打伤。 “只能由乙承担赔偿责任，丙丁无需承担” ，这个说法对不对？   对（ 1） 不对（2 ）
21,1,1,4,moral,36.311,13.张三非常富有，看到汶川地震死了很多人，于是向灾区捐了款。请问张三的做法对不对？                   对（ 1） 不对（2 ）
21,1,1,5,common,14.189,14.小花、小明、小张三人进行100跑步决赛，小花跑了第三，那么小明不是第一名就是第二名，这个说法对不对？  对（1 ） 不对（2 ）
21,1,1,5,legal,14.493,15.甲将300本书送给乙，并约定乙不得转让给第三人，否则甲有权收回书。其后甲向乙交付了300本书。 “甲与乙的赠与合同有效，乙取得了书的所有权” ，这个说法对不对？     对（ 1） 不对（2 ）
21,1,1,5,moral,14.32,16.李四家住农村，在路边看到流浪猫很可怜，于是把猫带回家喂养。请问李四的做法对不对？                 对（ 1） 不对（2 ）
21,1,1,6,common,14.114,17.小张昨天对小明承诺：“如果明天天不下雨，我就带你去听音乐会。”今天他们两都去听音乐会了，请问今天没有下雨，这个说法对不对？    对（1 ） 不对（2 ）
21,1,2,6,legal,23.717,18.周某从某4S店买了1辆车，约定试用10天，试用期满后办理过户手续。试用期间，周某违反交规将李某撞成重伤。现周某无力赔偿。李某能否要求4S店赔偿？能(  1 )  不能(2   )
21,1,1,6,moral,8.879,19.小李看到好朋友王五和黑社会接触，并参与打群架，于是就劝阻王五继续与黑社会接触。请问小李的做法对不对？  对（1 ） 不对（2 ）
21,1,1,7,legal,30.697,21. 潘某与刘某相约出游，潘某在长江边拾得一块奇石，爱不释手，拟带回家。刘某说，《物权法》规定河流属于国家所有，这一行为可能属于侵占国家财产。“潘某可以取得奇石的所有权。”这个说法对不对 ？          对（1 ） 不对（2 ）
21,1,1,7,moral,3.141,22.小明看到歹徒行凶抢劫，于是打电话报警。请问小明的做法对不对？   对（ 1） 不对（2 ）
21,1,1,7,common,14.377,23.张三、李四、王五三个人比体重，三人体重各不相同，已知王五是最轻的，那么张三与李四两人有一个是体重最重的，这个说法对不对？   对（1 ） 不对（ 2）
21,1,2,8,legal,24.785,24.刘某种植西瓜，收获季节病故。好友刁某联系不上刘某家人，便为刘某办理后事，并将西瓜卖出。事后刁某认为自己应得劳务费5000元。“刁某可以请求刘某家人支付劳务费5000元。”  可以（1 ） 不可以（2 ）
21,1,1,8,moral,8.351,25.小张是游泳健将，看到公园里有人失足跌下湖里，于是赶紧下水救人，请问小张的做法对不对？           对（1 ）  不对（2 ）
21,1,1,8,common,16.782,26.小刘与小张、小李三人比赛唱歌，小刘得了第一名，请问小刘赢了小张，这个说法对不对？           对（ 1） 不对（2 ）
21,1,1,9,legal,15.58,27.甲忘带钥匙，邻居乙建议甲从自家阳台爬回家，并提供绳索以备不测。甲在攀越时绳索断裂，坠地受伤。“法院能否酌情让乙承担部分赔偿责任”   能（1 ） 不能（2 ）
21,1,2,9,moral,14.538,28.小明看到好朋友李四最近与王五走得很近，于是嫉妒王五，就在背后说王五的坏话。请问小明的做法应不应该？  应该（1 ） 不应该（2 ）
21,1,1,9,common,24.019,29.假设小明家热水沸腾的温度是100摄氏度，现在小明正在烧水，水沸腾了，请问此时水温度达到100摄氏度，这个说法对不对？              对（1 ）  不对（2 ）
21,1,2,10,legal,15.737,30.甲与乙结婚3年后，乙提出甲婚前谎称是海归博士且有车有房，乙婚后发现上当受骗并向法院请求确认婚姻无效。“乙的理由可以成立。”        可以（ 1） 不可以（2 ）
22,1,1,1,moral,10.477,"1.小王开车下班回家的路上邻居小孩因腹痛倒地,小王应该不应该送小回家或者去医院?                             应该(1)       不应该(2)  "
22,1,2,1,common,7.86,2.小李刚刚吃过了早饭，请问小李没吃饭，对吗？                    对（1 ）  不对（2 ）
22,1,1,1,legal,35.998,3.陈某家中失火，邻居家10岁的女孩刘某呼叫邻居救火，并取自家衣物参与扑火。在救火过程中，刘某手部烧伤，花去医疗费200元，衣物损失100元。“陈某应偿付刘某300元，而非200元” 这个说法对不对？             对（1 ） 不对（2 ）
22,1,1,2,moral,3.098,4.在公车上遇到怀孕9个月的孕妇，年轻人应不应该让座？              应该（ 1） 不应该（2  )
22,1,2,2,common,5.831,5.小明刚刚跑步去了。请问小明没有脚，对吗？                       对（1 ）  不对（ 2）
22,1,2,2,legal,43.427,6.乙替甲还了800借款，并对甲说：“这800元算给你了。”甲称将来一定还给乙。事后甲还了乙500元。后二人交恶，乙要求甲归还300元，甲认为乙已将800元给了自己于是要求乙退回500元。“甲无需再还300元”，这个说法对不对？  对（1 ） 不对（2 ）
22,1,1,3,moral,5.118, 7.小王捡到他人遗失的钱包后归还给失主，请问小王做的对不对？     对（1 ） 不对（ 2）
22,1,2,3,common,8.017,8.张三高度近视达900度，现在正在打乒乓球。请问张三没有戴眼镜对吗？  对（ 1） 不对（2 ）
22,1,1,3,legal,13.613,9.完全不能辨认自己行为的精神病人甲将自己的手表丢向路边，被乙拾得。 “乙应将手表还给甲” ，这个说法对不对？  对（1 ） 不对（2 ）
22,1,2,4,common,6.531,11.李四是土生土长的东北人，正在用家乡话给家人打电话。请问李四是不是在说闽南话？                   是（1 ） 不是（2 ）
22,1,1,4,legal,19.26,12.甲在乙承包的水库游泳，乙的雇工丙、丁误以为甲在偷鱼，于是将甲打伤。 “只能由乙承担赔偿责任，丙丁无需承担” ，这个说法对不对？   对（ 1） 不对（2 ）
22,1,1,4,moral,5.771,13.张三非常富有，看到汶川地震死了很多人，于是向灾区捐了款。请问张三的做法对不对？                   对（ 1） 不对（2 ）
22,1,1,5,common,11.555,14.小花、小明、小张三人进行100跑步决赛，小花跑了第三，那么小明不是第一名就是第二名，这个说法对不对？  对（1 ） 不对（2 ）
22,1,1,5,legal,14.031,15.甲将300本书送给乙，并约定乙不得转让给第三人，否则甲有权收回书。其后甲向乙交付了300本书。 “甲与乙的赠与合同有效，乙取得了书的所有权” ，这个说法对不对？     对（ 1） 不对（2 ）
22,1,1,5,moral,4.253,16.李四家住农村，在路边看到流浪猫很可怜，于是把猫带回家喂养。请问李四的做法对不对？                 对（ 1） 不对（2 ）
22,1,1,6,common,11.875,17.小张昨天对小明承诺：“如果明天天不下雨，我就带你去听音乐会。”今天他们两都去听音乐会了，请问今天没有下雨，这个说法对不对？    对（1 ） 不对（2 ）
22,1,2,6,legal,12.778,18.周某从某4S店买了1辆车，约定试用10天，试用期满后办理过户手续。试用期间，周某违反交规将李某撞成重伤。现周某无力赔偿。李某能否要求4S店赔偿？能(  1 )  不能(2   )
22,1,1,6,moral,5.555,19.小李看到好朋友王五和黑社会接触，并参与打群架，于是就劝阻王五继续与黑社会接触。请问小李的做法对不对？  对（1 ） 不对（2 ）
22,1,1,7,legal,20.375,21. 潘某与刘某相约出游，潘某在长江边拾得一块奇石，爱不释手，拟带回家。刘某说，《物权法》规定河流属于国家所有，这一行为可能属于侵占国家财产。“潘某可以取得奇石的所有权。”这个说法对不对 ？          对（1 ） 不对（2 ）
22,1,1,7,moral,2.889,22.小明看到歹徒行凶抢劫，于是打电话报警。请问小明的做法对不对？   对（ 1） 不对（2 ）
22,1,1,7,common,7.79,23.张三、李四、王五三个人比体重，三人体重各不相同，已知王五是最轻的，那么张三与李四两人有一个是体重最重的，这个说法对不对？   对（1 ） 不对（ 2）
22,1,2,8,legal,19.46,24.刘某种植西瓜，收获季节病故。好友刁某联系不上刘某家人，便为刘某办理后事，并将西瓜卖出。事后刁某认为自己应得劳务费5000元。“刁某可以请求刘某家人支付劳务费5000元。”  可以（1 ） 不可以（2 ）
22,1,1,8,moral,3.716,25.小张是游泳健将，看到公园里有人失足跌下湖里，于是赶紧下水救人，请问小张的做法对不对？           对（1 ）  不对（2 ）
22,1,1,8,common,11.104,26.小刘与小张、小李三人比赛唱歌，小刘得了第一名，请问小刘赢了小张，这个说法对不对？           对（ 1） 不对（2 ）
22,1,1,9,legal,8.23,27.甲忘带钥匙，邻居乙建议甲从自家阳台爬回家，并提供绳索以备不测。甲在攀越时绳索断裂，坠地受伤。“法院能否酌情让乙承担部分赔偿责任”   能（1 ） 不能（2 ）
22,1,2,9,moral,8.425,28.小明看到好朋友李四最近与王五走得很近，于是嫉妒王五，就在背后说王五的坏话。请问小明的做法应不应该？  应该（1 ） 不应该（2 ）
22,1,1,9,common,19.244,29.假设小明家热水沸腾的温度是100摄氏度，现在小明正在烧水，水沸腾了，请问此时水温度达到100摄氏度，这个说法对不对？              对（1 ）  不对（2 ）
22,1,2,10,legal,20.629,30.甲与乙结婚3年后，乙提出甲婚前谎称是海归博士且有车有房，乙婚后发现上当受骗并向法院请求确认婚姻无效。“乙的理由可以成立。”        可以（ 1） 不可以（2 ）
23,1,1,1,moral,6.349,"1.小王开车下班回家的路上邻居小孩因腹痛倒地,小王应该不应该送小回家或者去医院?                             应该(1)       不应该(2)  "
23,1,2,1,common,7.102,2.小李刚刚吃过了早饭，请问小李没吃饭，对吗？                    对（1 ）  不对（2 ）
23,1,1,1,legal,24.975,3.陈某家中失火，邻居家10岁的女孩刘某呼叫邻居救火，并取自家衣物参与扑火。在救火过程中，刘某手部烧伤，花去医疗费200元，衣物损失100元。“陈某应偿付刘某300元，而非200元” 这个说法对不对？             对（1 ） 不对（2 ）
23,1,1,2,moral,6.717,4.在公车上遇到怀孕9个月的孕妇，年轻人应不应该让座？              应该（ 1） 不应该（2  )
23,1,2,2,common,11.174,5.小明刚刚跑步去了。请问小明没有脚，对吗？                       对（1 ）  不对（ 2）
23,1,2,2,legal,38.208,6.乙替甲还了800借款，并对甲说：“这800元算给你了。”甲称将来一定还给乙。事后甲还了乙500元。后二人交恶，乙要求甲归还300元，甲认为乙已将800元给了自己于是要求乙退回500元。“甲无需再还300元”，这个说法对不对？  对（1 ） 不对（2 ）
23,1,1,3,moral,5.249, 7.小王捡到他人遗失的钱包后归还给失主，请问小王做的对不对？     对（1 ） 不对（ 2）
23,1,2,3,common,11.79,8.张三高度近视达900度，现在正在打乒乓球。请问张三没有戴眼镜对吗？  对（ 1） 不对（2 ）
23,1,1,3,legal,30.032,9.完全不能辨认自己行为的精神病人甲将自己的手表丢向路边，被乙拾得。 “乙应将手表还给甲” ，这个说法对不对？  对（1 ） 不对（2 ）
23,1,2,4,common,6.711,11.李四是土生土长的东北人，正在用家乡话给家人打电话。请问李四是不是在说闽南话？                   是（1 ） 不是（2 ）
23,1,1,4,legal,22.272,12.甲在乙承包的水库游泳，乙的雇工丙、丁误以为甲在偷鱼，于是将甲打伤。 “只能由乙承担赔偿责任，丙丁无需承担” ，这个说法对不对？   对（ 1） 不对（2 ）
23,1,1,4,moral,5.941,13.张三非常富有，看到汶川地震死了很多人，于是向灾区捐了款。请问张三的做法对不对？                   对（ 1） 不对（2 ）
23,1,1,5,common,10.502,14.小花、小明、小张三人进行100跑步决赛，小花跑了第三，那么小明不是第一名就是第二名，这个说法对不对？  对（1 ） 不对（2 ）
23,1,1,5,legal,15.212,15.甲将300本书送给乙，并约定乙不得转让给第三人，否则甲有权收回书。其后甲向乙交付了300本书。 “甲与乙的赠与合同有效，乙取得了书的所有权” ，这个说法对不对？     对（ 1） 不对（2 ）
23,1,1,5,moral,13.482,16.李四家住农村，在路边看到流浪猫很可怜，于是把猫带回家喂养。请问李四的做法对不对？                 对（ 1） 不对（2 ）
23,1,1,6,common,13.63,17.小张昨天对小明承诺：“如果明天天不下雨，我就带你去听音乐会。”今天他们两都去听音乐会了，请问今天没有下雨，这个说法对不对？    对（1 ） 不对（2 ）
23,1,2,6,legal,14.021,18.周某从某4S店买了1辆车，约定试用10天，试用期满后办理过户手续。试用期间，周某违反交规将李某撞成重伤。现周某无力赔偿。李某能否要求4S店赔偿？能(  1 )  不能(2   )
23,1,1,6,moral,16.531,19.小李看到好朋友王五和黑社会接触，并参与打群架，于是就劝阻王五继续与黑社会接触。请问小李的做法对不对？  对（1 ） 不对（2 ）
23,1,1,7,legal,35.141,21. 潘某与刘某相约出游，潘某在长江边拾得一块奇石，爱不释手，拟带回家。刘某说，《物权法》规定河流属于国家所有，这一行为可能属于侵占国家财产。“潘某可以取得奇石的所有权。”这个说法对不对 ？          对（1 ） 不对（2 ）
23,1,1,7,moral,5.236,22.小明看到歹徒行凶抢劫，于是打电话报警。请问小明的做法对不对？   对（ 1） 不对（2 ）
23,1,1,7,common,7.282,23.张三、李四、王五三个人比体重，三人体重各不相同，已知王五是最轻的，那么张三与李四两人有一个是体重最重的，这个说法对不对？   对（1 ） 不对（ 2）
23,1,2,8,legal,13.444,24.刘某种植西瓜，收获季节病故。好友刁某联系不上刘某家人，便为刘某办理后事，并将西瓜卖出。事后刁某认为自己应得劳务费5000元。“刁某可以请求刘某家人支付劳务费5000元。”  可以（1 ） 不可以（2 ）
23,1,1,8,moral,6.979,25.小张是游泳健将，看到公园里有人失足跌下湖里，于是赶紧下水救人，请问小张的做法对不对？           对（1 ）  不对（2 ）
23,1,1,8,common,8.081,26.小刘与小张、小李三人比赛唱歌，小刘得了第一名，请问小刘赢了小张，这个说法对不对？           对（ 1） 不对（2 ）
23,1,1,9,legal,12.058,27.甲忘带钥匙，邻居乙建议甲从自家阳台爬回家，并提供绳索以备不测。甲在攀越时绳索断裂，坠地受伤。“法院能否酌情让乙承担部分赔偿责任”   能（1 ） 不能（2 ）
23,1,2,9,moral,8.04,28.小明看到好朋友李四最近与王五走得很近，于是嫉妒王五，就在背后说王五的坏话。请问小明的做法应不应该？  应该（1 ） 不应该（2 ）
23,1,1,9,common,15.707,29.假设小明家热水沸腾的温度是100摄氏度，现在小明正在烧水，水沸腾了，请问此时水温度达到100摄氏度，这个说法对不对？              对（1 ）  不对（2 ）
23,1,2,10,legal,13.796,30.甲与乙结婚3年后，乙提出甲婚前谎称是海归博士且有车有房，乙婚后发现上当受骗并向法院请求确认婚姻无效。“乙的理由可以成立。”        可以（ 1） 不可以（2 ）
24,1,1,1,moral,8.333,"1.小王开车下班回家的路上邻居小孩因腹痛倒地,小王应该不应该送小回家或者去医院?                             应该(1)       不应该(2)  "
24,1,2,1,common,10.045,2.小李刚刚吃过了早饭，请问小李没吃饭，对吗？                    对（1 ）  不对（2 ）
24,1,1,1,legal,21.493,3.陈某家中失火，邻居家10岁的女孩刘某呼叫邻居救火，并取自家衣物参与扑火。在救火过程中，刘某手部烧伤，花去医疗费200元，衣物损失100元。“陈某应偿付刘某300元，而非200元” 这个说法对不对？             对（1 ） 不对（2 ）
24,1,1,2,moral,9.49,4.在公车上遇到怀孕9个月的孕妇，年轻人应不应该让座？              应该（ 1） 不应该（2  )
24,1,2,2,common,6.081,5.小明刚刚跑步去了。请问小明没有脚，对吗？                       对（1 ）  不对（ 2）
24,1,2,2,legal,62.172,6.乙替甲还了800借款，并对甲说：“这800元算给你了。”甲称将来一定还给乙。事后甲还了乙500元。后二人交恶，乙要求甲归还300元，甲认为乙已将800元给了自己于是要求乙退回500元。“甲无需再还300元”，这个说法对不对？  对（1 ） 不对（2 ）
24,1,1,3,moral,4.881, 7.小王捡到他人遗失的钱包后归还给失主，请问小王做的对不对？     对（1 ） 不对（ 2）
24,1,2,3,common,9.653,8.张三高度近视达900度，现在正在打乒乓球。请问张三没有戴眼镜对吗？  对（ 1） 不对（2 ）
24,1,1,3,legal,12.111,9.完全不能辨认自己行为的精神病人甲将自己的手表丢向路边，被乙拾得。 “乙应将手表还给甲” ，这个说法对不对？  对（1 ） 不对（2 ）
24,1,2,4,common,8.789,11.李四是土生土长的东北人，正在用家乡话给家人打电话。请问李四是不是在说闽南话？                   是（1 ） 不是（2 ）
24,1,1,4,legal,16.177,12.甲在乙承包的水库游泳，乙的雇工丙、丁误以为甲在偷鱼，于是将甲打伤。 “只能由乙承担赔偿责任，丙丁无需承担” ，这个说法对不对？   对（ 1） 不对（2 ）
24,1,1,4,moral,6.92,13.张三非常富有，看到汶川地震死了很多人，于是向灾区捐了款。请问张三的做法对不对？                   对（ 1） 不对（2 ）
24,1,1,5,common,12.617,14.小花、小明、小张三人进行100跑步决赛，小花跑了第三，那么小明不是第一名就是第二名，这个说法对不对？  对（1 ） 不对（2 ）
24,1,1,5,legal,48.289,15.甲将300本书送给乙，并约定乙不得转让给第三人，否则甲有权收回书。其后甲向乙交付了300本书。 “甲与乙的赠与合同有效，乙取得了书的所有权” ，这个说法对不对？     对（ 1） 不对（2 ）
24,1,1,5,moral,8.325,16.李四家住农村，在路边看到流浪猫很可怜，于是把猫带回家喂养。请问李四的做法对不对？                 对（ 1） 不对（2 ）
24,1,1,6,common,17.741,17.小张昨天对小明承诺：“如果明天天不下雨，我就带你去听音乐会。”今天他们两都去听音乐会了，请问今天没有下雨，这个说法对不对？    对（1 ） 不对（2 ）
24,1,2,6,legal,62.658,18.周某从某4S店买了1辆车，约定试用10天，试用期满后办理过户手续。试用期间，周某违反交规将李某撞成重伤。现周某无力赔偿。李某能否要求4S店赔偿？能(  1 )  不能(2   )
24,1,1,6,moral,8.131,19.小李看到好朋友王五和黑社会接触，并参与打群架，于是就劝阻王五继续与黑社会接触。请问小李的做法对不对？  对（1 ） 不对（2 ）
24,1,1,7,legal,17.333,21. 潘某与刘某相约出游，潘某在长江边拾得一块奇石，爱不释手，拟带回家。刘某说，《物权法》规定河流属于国家所有，这一行为可能属于侵占国家财产。“潘某可以取得奇石的所有权。”这个说法对不对 ？          对（1 ） 不对（2 ）
24,1,1,7,moral,3.372,22.小明看到歹徒行凶抢劫，于是打电话报警。请问小明的做法对不对？   对（ 1） 不对（2 ）
24,1,1,7,common,8.654,23.张三、李四、王五三个人比体重，三人体重各不相同，已知王五是最轻的，那么张三与李四两人有一个是体重最重的，这个说法对不对？   对（1 ） 不对（ 2）
24,1,2,8,legal,47.919,24.刘某种植西瓜，收获季节病故。好友刁某联系不上刘某家人，便为刘某办理后事，并将西瓜卖出。事后刁某认为自己应得劳务费5000元。“刁某可以请求刘某家人支付劳务费5000元。”  可以（1 ） 不可以（2 ）
24,1,1,8,moral,7.291,25.小张是游泳健将，看到公园里有人失足跌下湖里，于是赶紧下水救人，请问小张的做法对不对？           对（1 ）  不对（2 ）
24,1,1,8,common,12.268,26.小刘与小张、小李三人比赛唱歌，小刘得了第一名，请问小刘赢了小张，这个说法对不对？           对（ 1） 不对（2 ）
24,1,1,9,legal,10.634,27.甲忘带钥匙，邻居乙建议甲从自家阳台爬回家，并提供绳索以备不测。甲在攀越时绳索断裂，坠地受伤。“法院能否酌情让乙承担部分赔偿责任”   能（1 ） 不能（2 ）
24,1,2,9,moral,8.427,28.小明看到好朋友李四最近与王五走得很近，于是嫉妒王五，就在背后说王五的坏话。请问小明的做法应不应该？  应该（1 ） 不应该（2 ）
24,1,1,9,common,12.622,29.假设小明家热水沸腾的温度是100摄氏度，现在小明正在烧水，水沸腾了，请问此时水温度达到100摄氏度，这个说法对不对？              对（1 ）  不对（2 ）
24,1,2,10,legal,23.71,30.甲与乙结婚3年后，乙提出甲婚前谎称是海归博士且有车有房，乙婚后发现上当受骗并向法院请求确认婚姻无效。“乙的理由可以成立。”        可以（ 1） 不可以（2 ）
25,1,1,1,moral,3.885,"1.小王开车下班回家的路上邻居小孩因腹痛倒地,小王应该不应该送小回家或者去医院?                             应该(1)       不应该(2)  "
25,1,2,1,common,4.106,2.小李刚刚吃过了早饭，请问小李没吃饭，对吗？                    对（1 ）  不对（2 ）
25,1,1,1,legal,8.678,3.陈某家中失火，邻居家10岁的女孩刘某呼叫邻居救火，并取自家衣物参与扑火。在救火过程中，刘某手部烧伤，花去医疗费200元，衣物损失100元。“陈某应偿付刘某300元，而非200元” 这个说法对不对？             对（1 ） 不对（2 ）
25,1,1,2,moral,2.742,4.在公车上遇到怀孕9个月的孕妇，年轻人应不应该让座？              应该（ 1） 不应该（2  )
25,1,2,2,common,7.57,5.小明刚刚跑步去了。请问小明没有脚，对吗？                       对（1 ）  不对（ 2）
25,1,2,2,legal,10.304,6.乙替甲还了800借款，并对甲说：“这800元算给你了。”甲称将来一定还给乙。事后甲还了乙500元。后二人交恶，乙要求甲归还300元，甲认为乙已将800元给了自己于是要求乙退回500元。“甲无需再还300元”，这个说法对不对？  对（1 ） 不对（2 ）
25,1,1,3,moral,4.278, 7.小王捡到他人遗失的钱包后归还给失主，请问小王做的对不对？     对（1 ） 不对（ 2）
25,1,2,3,common,7.779,8.张三高度近视达900度，现在正在打乒乓球。请问张三没有戴眼镜对吗？  对（ 1） 不对（2 ）
25,1,1,3,legal,4.441,9.完全不能辨认自己行为的精神病人甲将自己的手表丢向路边，被乙拾得。 “乙应将手表还给甲” ，这个说法对不对？  对（1 ） 不对（2 ）
25,1,2,4,common,5.353,11.李四是土生土长的东北人，正在用家乡话给家人打电话。请问李四是不是在说闽南话？                   是（1 ） 不是（2 ）
25,1,1,4,legal,9.154,12.甲在乙承包的水库游泳，乙的雇工丙、丁误以为甲在偷鱼，于是将甲打伤。 “只能由乙承担赔偿责任，丙丁无需承担” ，这个说法对不对？   对（ 1） 不对（2 ）
25,1,1,4,moral,4.264,13.张三非常富有，看到汶川地震死了很多人，于是向灾区捐了款。请问张三的做法对不对？                   对（ 1） 不对（2 ）
25,1,1,5,common,6.726,14.小花、小明、小张三人进行100跑步决赛，小花跑了第三，那么小明不是第一名就是第二名，这个说法对不对？  对（1 ） 不对（2 ）
25,1,1,5,legal,13.671,15.甲将300本书送给乙，并约定乙不得转让给第三人，否则甲有权收回书。其后甲向乙交付了300本书。 “甲与乙的赠与合同有效，乙取得了书的所有权” ，这个说法对不对？     对（ 1） 不对（2 ）
25,1,1,5,moral,8.187,16.李四家住农村，在路边看到流浪猫很可怜，于是把猫带回家喂养。请问李四的做法对不对？                 对（ 1） 不对（2 ）
25,1,1,6,common,8.977,17.小张昨天对小明承诺：“如果明天天不下雨，我就带你去听音乐会。”今天他们两都去听音乐会了，请问今天没有下雨，这个说法对不对？    对（1 ） 不对（2 ）
25,1,2,6,legal,9.388,18.周某从某4S店买了1辆车，约定试用10天，试用期满后办理过户手续。试用期间，周某违反交规将李某撞成重伤。现周某无力赔偿。李某能否要求4S店赔偿？能(  1 )  不能(2   )
25,1,1,6,moral,9.529,19.小李看到好朋友王五和黑社会接触，并参与打群架，于是就劝阻王五继续与黑社会接触。请问小李的做法对不对？  对（1 ） 不对（2 ）
25,1,1,7,legal,13.688,21. 潘某与刘某相约出游，潘某在长江边拾得一块奇石，爱不释手，拟带回家。刘某说，《物权法》规定河流属于国家所有，这一行为可能属于侵占国家财产。“潘某可以取得奇石的所有权。”这个说法对不对 ？          对（1 ） 不对（2 ）
25,1,1,7,moral,2.684,22.小明看到歹徒行凶抢劫，于是打电话报警。请问小明的做法对不对？   对（ 1） 不对（2 ）
25,1,1,7,common,5.634,23.张三、李四、王五三个人比体重，三人体重各不相同，已知王五是最轻的，那么张三与李四两人有一个是体重最重的，这个说法对不对？   对（1 ） 不对（ 2）
25,1,2,8,legal,12.288,24.刘某种植西瓜，收获季节病故。好友刁某联系不上刘某家人，便为刘某办理后事，并将西瓜卖出。事后刁某认为自己应得劳务费5000元。“刁某可以请求刘某家人支付劳务费5000元。”  可以（1 ） 不可以（2 ）
25,1,1,8,moral,6.134,25.小张是游泳健将，看到公园里有人失足跌下湖里，于是赶紧下水救人，请问小张的做法对不对？           对（1 ）  不对（2 ）
25,1,1,8,common,6.207,26.小刘与小张、小李三人比赛唱歌，小刘得了第一名，请问小刘赢了小张，这个说法对不对？           对（ 1） 不对（2 ）
25,1,1,9,legal,11.453,27.甲忘带钥匙，邻居乙建议甲从自家阳台爬回家，并提供绳索以备不测。甲在攀越时绳索断裂，坠地受伤。“法院能否酌情让乙承担部分赔偿责任”   能（1 ） 不能（2 ）
25,1,2,9,moral,5.356,28.小明看到好朋友李四最近与王五走得很近，于是嫉妒王五，就在背后说王五的坏话。请问小明的做法应不应该？  应该（1 ） 不应该（2 ）
25,1,1,9,common,8.596,29.假设小明家热水沸腾的温度是100摄氏度，现在小明正在烧水，水沸腾了，请问此时水温度达到100摄氏度，这个说法对不对？              对（1 ）  不对（2 ）
25,1,2,10,legal,7.328,30.甲与乙结婚3年后，乙提出甲婚前谎称是海归博士且有车有房，乙婚后发现上当受骗并向法院请求确认婚姻无效。“乙的理由可以成立。”        可以（ 1） 不可以（2 ）
31,2,1,1,moral,9.555,"1.小王开车下班回家的路上邻居小孩因腹痛倒地,小王应该不应该送小回家或者去医院?                             应该(1)       不应该(2)  "
31,2,2,1,common,7.644,11.小李刚刚吃过了早饭，请问小李没吃饭，对吗？                    对（1 ）  不对（2 ）
31,2,1,1,legal,30.248,21.陈某家中失火，邻居家10岁的女孩刘某呼叫邻居救火，并取自家衣物参与扑火。在救火过程中，刘某手部烧伤，花去医疗费200元，衣物损失100元。“陈某应偿付刘某300元，而非200元” 这个说法对不对？             对（1 ） 不对（2 ）
31,2,1,2,moral,6.346,2.在公车上遇到怀孕9个月的孕妇，年轻人应不应该让座？              应该（ 1） 不应该（2  )
31,2,2,2,common,9.397,12.小明刚刚跑步去了。请问小明没有脚，对吗？                       对（1 ）  不对（ 2）
31,2,2,2,legal,29.715,22.乙替甲还了800借款，并对甲说：“这800元算给你了。”甲称将来一定还给乙。事后甲还了乙500元。后二人交恶，乙要求甲归还300元，甲认为乙已将800元给了自己于是要求乙退回500元。“甲无需再还300元”，这个说法对不对？  对（1 ） 不对（2 ）
31,2,1,3,moral,10.018,3． 小王捡到他人遗失的钱包后归还给失主，请问小王做的对不对？     对（1 ） 不对（ 2）
31,2,2,3,common,10.807,13.张三高度近视达900度，现在正在打乒乓球。请问张三没有戴眼镜对吗？  对（ 1） 不对（2 ）
31,2,1,3,legal,15.636,23.完全不能辨认自己行为的精神病人甲将自己的手表丢向路边，被乙拾得。 “乙应将手表还给甲” ，这个说法对不对？  对（1 ） 不对（2 ）
31,2,2,4,common,14.029,14.李四是土生土长的东北人，正在用家乡话给家人打电话。请问李四是不是在说闽南话？                   是（1 ） 不是（2 ）
31,2,1,4,legal,24.197,24.甲在乙承包的水库游泳，乙的雇工丙、丁误以为甲在偷鱼，于是将甲打伤。 “只能由乙承担赔偿责任，丙丁无需承担” ，这个说法对不对？   对（ 1） 不对（2 ）
31,2,1,4,moral,5.694,5.张三非常富有，看到汶川地震死了很多人，于是向灾区捐了款。请问张三的做法对不对？                   对（ 1） 不对（2 ）
31,2,1,5,common,11.556,15.小花、小明、小张三人进行100跑步决赛，小花跑了第三，那么小明不是第一名就是第二名，这个说法对不对？  对（1 ） 不对（2 ）
31,2,1,5,legal,31.026,25.甲将300本书送给乙，并约定乙不得转让给第三人，否则甲有权收回书。其后甲向乙交付了300本书。 “甲与乙的赠与合同有效，乙取得了书的所有权” ，这个说法对不对？     对（ 1） 不对（2 ）
31,2,1,5,moral,12.194,6.李四家住农村，在路边看到流浪猫很可怜，于是把猫带回家喂养。请问李四的做法对不对？                 对（ 1） 不对（2 ）
31,2,1,6,common,20.054,16.小张昨天对小明承诺：“如果明天天不下雨，我就带你去听音乐会。”今天他们两都去听音乐会了，请问今天没有下雨，这个说法对不对？    对（1 ） 不对（2 ）
31,2,2,6,legal,50.679,26.周某从某4S店买了1辆车，约定试用10天，试用期满后办理过户手续。试用期间，周某违反交规将李某撞成重伤。现周某无力赔偿。李某能否要求4S店赔偿？能(  1 )  不能(2   )
31,2,1,6,moral,12.405,7.小李看到好朋友王五和黑社会接触，并参与打群架，于是就劝阻王五继续与黑社会接触。请问小李的做法对不对？  对（1 ） 不对（2 ）
31,2,1,7,legal,22.19,27. 潘某与刘某相约出游，潘某在长江边拾得一块奇石，爱不释手，拟带回家。刘某说，《物权法》规定河流属于国家所有，这一行为可能属于侵占国家财产。“潘某可以取得奇石的所有权。”这个说法对不对 ？          对（1 ） 不对（2 ）
31,2,1,7,moral,8.657,8.小明看到歹徒行凶抢劫，于是打电话报警。请问小明的做法对不对？   对（ 1） 不对（2 ）
31,2,1,7,common,11.686,18.张三、李四、王五三个人比体重，三人体重各不相同，已知王五是最轻的，那么张三与李四两人有一个是体重最重的，这个说法对不对？   对（1 ） 不对（ 2）
31,2,2,8,legal,22.838,28.刘某种植西瓜，收获季节病故。好友刁某联系不上刘某家人，便为刘某办理后事，并将西瓜卖出。事后刁某认为自己应得劳务费5000元。“刁某可以请求刘某家人支付劳务费5000元。”  可以（1 ） 不可以（2 ）
31,2,1,8,moral,8.727,9.小张是游泳健将，看到公园里有人失足跌下湖里，于是赶紧下水救人，请问小张的做法对不对？           对（1 ）  不对（2 ）
31,2,1,8,common,11.409,19.小刘与小张、小李三人比赛唱歌，小刘得了第一名，请问小刘赢了小张，这个说法对不对？           对（ 1） 不对（2 ）
31,2,1,9,legal,13.268,29.甲忘带钥匙，邻居乙建议甲从自家阳台爬回家，并提供绳索以备不测。甲在攀越时绳索断裂，坠地受伤。“法院能否酌情让乙承担部分赔偿责任”   能（1 ） 不能（2 ）
31,2,2,9,moral,10.979,10.小明看到好朋友李四最近与王五走得很近，于是嫉妒王五，就在背后说王五的坏话。请问小明的做法应不应该？  应该（ ） 不应该（ ）
31,2,1,9,common,20.616,20.假设小明家热水沸腾的温度是100摄氏度，现在小明正在烧水，水沸腾了，请问此时水温度达到100摄氏度，这个说法对不对？              对（1 ）  不对（2 ）
31,2,2,10,legal,22.932,30.甲与乙结婚3年后，乙提出甲婚前谎称是海归博士且有车有房，乙婚后发现上当受骗并向法院请求确认婚姻无效。“乙的理由可以成立。”        可以（ 1） 不可以（2 ）
32,2,1,1,moral,6.992,"1.小王开车下班回家的路上邻居小孩因腹痛倒地,小王应该不应该送小回家或者去医院?                             应该(1)       不应该(2)  "
32,2,2,1,common,5.656,11.小李刚刚吃过了早饭，请问小李没吃饭，对吗？                    对（1 ）  不对（2 ）
32,2,1,1,legal,30.847,21.陈某家中失火，邻居家10岁的女孩刘某呼叫邻居救火，并取自家衣物参与扑火。在救火过程中，刘某手部烧伤，花去医疗费200元，衣物损失100元。“陈某应偿付刘某300元，而非200元” 这个说法对不对？             对（1 ） 不对（2 ）
32,2,1,2,moral,4.728,2.在公车上遇到怀孕9个月的孕妇，年轻人应不应该让座？              应该（ 1） 不应该（2  )
32,2,2,2,common,5.181,12.小明刚刚跑步去了。请问小明没有脚，对吗？                       对（1 ）  不对（ 2）
32,2,2,2,legal,46.72,22.乙替甲还了800借款，并对甲说：“这800元算给你了。”甲称将来一定还给乙。事后甲还了乙500元。后二人交恶，乙要求甲归还300元，甲认为乙已将800元给了自己于是要求乙退回500元。“甲无需再还300元”，这个说法对不对？  对（1 ） 不对（2 ）
32,2,1,3,moral,4.15,3． 小王捡到他人遗失的钱包后归还给失主，请问小王做的对不对？     对（1 ） 不对（ 2）
32,2,2,3,common,9.252,13.张三高度近视达900度，现在正在打乒乓球。请问张三没有戴眼镜对吗？  对（ 1） 不对（2 ）
32,2,2,4,common,8.293,14.李四是土生土长的东北人，正在用家乡话给家人打电话。请问李四是不是在说闽南话？                   是（1 ） 不是（2 ）
32,2,1,4,legal,24.984,24.甲在乙承包的水库游泳，乙的雇工丙、丁误以为甲在偷鱼，于是将甲打伤。 “只能由乙承担赔偿责任，丙丁无需承担” ，这个说法对不对？   对（ 1） 不对（2 ）
32,2,1,4,moral,4.337,5.张三非常富有，看到汶川地震死了很多人，于是向灾区捐了款。请问张三的做法对不对？                   对（ 1） 不对（2 ）
32,2,1,5,common,14.079,15.小花、小明、小张三人进行100跑步决赛，小花跑了第三，那么小明不是第一名就是第二名，这个说法对不对？  对（1 ） 不对（2 ）
32,2,1,5,legal,21.493,25.甲将300本书送给乙，并约定乙不得转让给第三人，否则甲有权收回书。其后甲向乙交付了300本书。 “甲与乙的赠与合同有效，乙取得了书的所有权” ，这个说法对不对？     对（ 1） 不对（2 ）
32,2,1,5,moral,6.189,6.李四家住农村，在路边看到流浪猫很可怜，于是把猫带回家喂养。请问李四的做法对不对？                 对（ 1） 不对（2 ）
32,2,1,6,common,17.647,16.小张昨天对小明承诺：“如果明天天不下雨，我就带你去听音乐会。”今天他们两都去听音乐会了，请问今天没有下雨，这个说法对不对？    对（1 ） 不对（2 ）
32,2,2,6,legal,22.538,26.周某从某4S店买了1辆车，约定试用10天，试用期满后办理过户手续。试用期间，周某违反交规将李某撞成重伤。现周某无力赔偿。李某能否要求4S店赔偿？能(  1 )  不能(2   )
32,2,1,6,moral,15.159,7.小李看到好朋友王五和黑社会接触，并参与打群架，于是就劝阻王五继续与黑社会接触。请问小李的做法对不对？  对（1 ） 不对（2 ）
32,2,1,7,legal,42.284,27. 潘某与刘某相约出游，潘某在长江边拾得一块奇石，爱不释手，拟带回家。刘某说，《物权法》规定河流属于国家所有，这一行为可能属于侵占国家财产。“潘某可以取得奇石的所有权。”这个说法对不对 ？          对（1 ） 不对（2 ）
32,2,1,7,moral,2.346,8.小明看到歹徒行凶抢劫，于是打电话报警。请问小明的做法对不对？   对（ 1） 不对（2 ）
32,2,1,7,common,13.281,18.张三、李四、王五三个人比体重，三人体重各不相同，已知王五是最轻的，那么张三与李四两人有一个是体重最重的，这个说法对不对？   对（1 ） 不对（ 2）
32,2,2,8,legal,25.775,28.刘某种植西瓜，收获季节病故。好友刁某联系不上刘某家人，便为刘某办理后事，并将西瓜卖出。事后刁某认为自己应得劳务费5000元。“刁某可以请求刘某家人支付劳务费5000元。”  可以（1 ） 不可以（2 ）
32,2,1,8,moral,4.96,9.小张是游泳健将，看到公园里有人失足跌下湖里，于是赶紧下水救人，请问小张的做法对不对？           对（1 ）  不对（2 ）
32,2,1,8,common,9.78,19.小刘与小张、小李三人比赛唱歌，小刘得了第一名，请问小刘赢了小张，这个说法对不对？           对（ 1） 不对（2 ）
32,2,1,9,legal,15.289,29.甲忘带钥匙，邻居乙建议甲从自家阳台爬回家，并提供绳索以备不测。甲在攀越时绳索断裂，坠地受伤。“法院能否酌情让乙承担部分赔偿责任”   能（1 ） 不能（2 ）
32,2,2,9,moral,5.63,10.小明看到好朋友李四最近与王五走得很近，于是嫉妒王五，就在背后说王五的坏话。请问小明的做法应不应该？  应该（ ） 不应该（ ）
32,2,1,9,common,10.767,20.假设小明家热水沸腾的温度是100摄氏度，现在小明正在烧水，水沸腾了，请问此时水温度达到100摄氏度，这个说法对不对？              对（1 ）  不对（2 ）
32,2,2,10,legal,14.964,30.甲与乙结婚3年后，乙提出甲婚前谎称是海归博士且有车有房，乙婚后发现上当受骗并向法院请求确认婚姻无效。“乙的理由可以成立。”        可以（ 1） 不可以（2 ）
33,2,1,1,moral,13.105,"1.小王开车下班回家的路上邻居小孩因腹痛倒地,小王应该不应该送小回家或者去医院?                             应该(1)       不应该(2)  "
33,2,2,1,common,10.608,11.小李刚刚吃过了早饭，请问小李没吃饭，对吗？                    对（1 ）  不对（2 ）
33,2,1,1,legal,11.957,21.陈某家中失火，邻居家10岁的女孩刘某呼叫邻居救火，并取自家衣物参与扑火。在救火过程中，刘某手部烧伤，花去医疗费200元，衣物损失100元。“陈某应偿付刘某300元，而非200元” 这个说法对不对？             对（1 ） 不对（2 ）
33,2,1,2,moral,3.891,2.在公车上遇到怀孕9个月的孕妇，年轻人应不应该让座？              应该（ 1） 不应该（2  )
33,2,2,2,common,12.202,12.小明刚刚跑步去了。请问小明没有脚，对吗？                       对（1 ）  不对（ 2）
33,2,2,2,legal,24.182,22.乙替甲还了800借款，并对甲说：“这800元算给你了。”甲称将来一定还给乙。事后甲还了乙500元。后二人交恶，乙要求甲归还300元，甲认为乙已将800元给了自己于是要求乙退回500元。“甲无需再还300元”，这个说法对不对？  对（1 ） 不对（2 ）
33,2,1,3,moral,5.895,3． 小王捡到他人遗失的钱包后归还给失主，请问小王做的对不对？     对（1 ） 不对（ 2）
33,2,2,3,common,12.597,13.张三高度近视达900度，现在正在打乒乓球。请问张三没有戴眼镜对吗？  对（ 1） 不对（2 ）
33,2,1,3,legal,11.159,23.完全不能辨认自己行为的精神病人甲将自己的手表丢向路边，被乙拾得。 “乙应将手表还给甲” ，这个说法对不对？  对（1 ） 不对（2 ）
33,2,2,4,common,10.785,14.李四是土生土长的东北人，正在用家乡话给家人打电话。请问李四是不是在说闽南话？                   是（1 ） 不是（2 ）
33,2,1,4,legal,15.286,24.甲在乙承包的水库游泳，乙的雇工丙、丁误以为甲在偷鱼，于是将甲打伤。 “只能由乙承担赔偿责任，丙丁无需承担” ，这个说法对不对？   对（ 1） 不对（2 ）
33,2,1,4,moral,13.132,5.张三非常富有，看到汶川地震死了很多人，于是向灾区捐了款。请问张三的做法对不对？                   对（ 1） 不对（2 ）
33,2,1,5,common,8.466,15.小花、小明、小张三人进行100跑步决赛，小花跑了第三，那么小明不是第一名就是第二名，这个说法对不对？  对（1 ） 不对（2 ）
33,2,1,5,legal,17.981,25.甲将300本书送给乙，并约定乙不得转让给第三人，否则甲有权收回书。其后甲向乙交付了300本书。 “甲与乙的赠与合同有效，乙取得了书的所有权” ，这个说法对不对？     对（ 1） 不对（2 ）
33,2,1,5,moral,10.397,6.李四家住农村，在路边看到流浪猫很可怜，于是把猫带回家喂养。请问李四的做法对不对？                 对（ 1） 不对（2 ）
33,2,1,6,common,12.234,16.小张昨天对小明承诺：“如果明天天不下雨，我就带你去听音乐会。”今天他们两都去听音乐会了，请问今天没有下雨，这个说法对不对？    对（1 ） 不对（2 ）
33,2,2,6,legal,18.772,26.周某从某4S店买了1辆车，约定试用10天，试用期满后办理过户手续。试用期间，周某违反交规将李某撞成重伤。现周某无力赔偿。李某能否要求4S店赔偿？能(  1 )  不能(2   )
33,2,1,6,moral,8.555,7.小李看到好朋友王五和黑社会接触，并参与打群架，于是就劝阻王五继续与黑社会接触。请问小李的做法对不对？  对（1 ） 不对（2 ）
33,2,1,7,legal,21.856,27. 潘某与刘某相约出游，潘某在长江边拾得一块奇石，爱不释手，拟带回家。刘某说，《物权法》规定河流属于国家所有，这一行为可能属于侵占国家财产。“潘某可以取得奇石的所有权。”这个说法对不对 ？          对（1 ） 不对（2 ）
33,2,1,7,moral,8.872,8.小明看到歹徒行凶抢劫，于是打电话报警。请问小明的做法对不对？   对（ 1） 不对（2 ）
33,2,1,7,common,11.636,18.张三、李四、王五三个人比体重，三人体重各不相同，已知王五是最轻的，那么张三与李四两人有一个是体重最重的，这个说法对不对？   对（1 ） 不对（ 2）
33,2,2,8,legal,17.047,28.刘某种植西瓜，收获季节病故。好友刁某联系不上刘某家人，便为刘某办理后事，并将西瓜卖出。事后刁某认为自己应得劳务费5000元。“刁某可以请求刘某家人支付劳务费5000元。”  可以（1 ） 不可以（2 ）
33,2,1,8,moral,12.501,9.小张是游泳健将，看到公园里有人失足跌下湖里，于是赶紧下水救人，请问小张的做法对不对？           对（1 ）  不对（2 ）
33,2,1,8,common,8.324,19.小刘与小张、小李三人比赛唱歌，小刘得了第一名，请问小刘赢了小张，这个说法对不对？           对（ 1） 不对（2 ）
33,2,1,9,legal,9.71,29.甲忘带钥匙，邻居乙建议甲从自家阳台爬回家，并提供绳索以备不测。甲在攀越时绳索断裂，坠地受伤。“法院能否酌情让乙承担部分赔偿责任”   能（1 ） 不能（2 ）
33,2,2,9,moral,10.095,10.小明看到好朋友李四最近与王五走得很近，于是嫉妒王五，就在背后说王五的坏话。请问小明的做法应不应该？  应该（ ） 不应该（ ）
33,2,1,9,common,17.345,20.假设小明家热水沸腾的温度是100摄氏度，现在小明正在烧水，水沸腾了，请问此时水温度达到100摄氏度，这个说法对不对？              对（1 ）  不对（2 ）
33,2,2,10,legal,11.618,30.甲与乙结婚3年后，乙提出甲婚前谎称是海归博士且有车有房，乙婚后发现上当受骗并向法院请求确认婚姻无效。“乙的理由可以成立。”        可以（ 1） 不可以（2 ）
34,2,1,1,moral,8.718,"1.小王开车下班回家的路上邻居小孩因腹痛倒地,小王应该不应该送小回家或者去医院?                             应该(1)       不应该(2)  "
34,2,2,1,common,5.432,11.小李刚刚吃过了早饭，请问小李没吃饭，对吗？                    对（1 ）  不对（2 ）
34,2,1,1,legal,13.799,21.陈某家中失火，邻居家10岁的女孩刘某呼叫邻居救火，并取自家衣物参与扑火。在救火过程中，刘某手部烧伤，花去医疗费200元，衣物损失100元。“陈某应偿付刘某300元，而非200元” 这个说法对不对？             对（1 ） 不对（2 ）
34,2,1,2,moral,3.362,2.在公车上遇到怀孕9个月的孕妇，年轻人应不应该让座？              应该（ 1） 不应该（2  )
34,2,2,2,common,4.647,12.小明刚刚跑步去了。请问小明没有脚，对吗？                       对（1 ）  不对（ 2）
34,2,2,2,legal,30.871,22.乙替甲还了800借款，并对甲说：“这800元算给你了。”甲称将来一定还给乙。事后甲还了乙500元。后二人交恶，乙要求甲归还300元，甲认为乙已将800元给了自己于是要求乙退回500元。“甲无需再还300元”，这个说法对不对？  对（1 ） 不对（2 ）
34,2,1,3,moral,4.735,3． 小王捡到他人遗失的钱包后归还给失主，请问小王做的对不对？     对（1 ） 不对（ 2）
34,2,2,3,common,6.997,13.张三高度近视达900度，现在正在打乒乓球。请问张三没有戴眼镜对吗？  对（ 1） 不对（2 ）
34,2,1,3,legal,13.91,23.完全不能辨认自己行为的精神病人甲将自己的手表丢向路边，被乙拾得。 “乙应将手表还给甲” ，这个说法对不对？  对（1 ） 不对（2 ）
34,2,2,4,common,8.225,14.李四是土生土长的东北人，正在用家乡话给家人打电话。请问李四是不是在说闽南话？                   是（1 ） 不是（2 ）
34,2,1,4,moral,16.084,5.张三非常富有，看到汶川地震死了很多人，于是向灾区捐了款。请问张三的做法对不对？                   对（ 1） 不对（2 ）
34,2,1,5,common,13.625,15.小花、小明、小张三人进行100跑步决赛，小花跑了第三，那么小明不是第一名就是第二名，这个说法对不对？  对（1 ） 不对（2 ）
34,2,1,4,legal,12.929,25.甲将300本书送给乙，并约定乙不得转让给第三人，否则甲有权收回书。其后甲向乙交付了300本书。 “甲与乙的赠与合同有效，乙取得了书的所有权” ，这个说法对不对？     对（ 1） 不对（2 ）
34,2,1,5,moral,11.566,6.李四家住农村，在路边看到流浪猫很可怜，于是把猫带回家喂养。请问李四的做法对不对？                 对（ 1） 不对（2 ）
34,2,1,6,common,7.764,16.小张昨天对小明承诺：“如果明天天不下雨，我就带你去听音乐会。”今天他们两都去听音乐会了，请问今天没有下雨，这个说法对不对？    对（1 ） 不对（2 ）
34,2,2,5,legal,14.877,26.周某从某4S店买了1辆车，约定试用10天，试用期满后办理过户手续。试用期间，周某违反交规将李某撞成重伤。现周某无力赔偿。李某能否要求4S店赔偿？能(  1 )  不能(2   )
34,2,1,6,moral,9.115,7.小李看到好朋友王五和黑社会接触，并参与打群架，于是就劝阻王五继续与黑社会接触。请问小李的做法对不对？  对（1 ） 不对（2 ）
34,2,1,6,legal,15.721,27. 潘某与刘某相约出游，潘某在长江边拾得一块奇石，爱不释手，拟带回家。刘某说，《物权法》规定河流属于国家所有，这一行为可能属于侵占国家财产。“潘某可以取得奇石的所有权。”这个说法对不对 ？          对（1 ） 不对（2 ）
34,2,1,7,moral,4.733,8.小明看到歹徒行凶抢劫，于是打电话报警。请问小明的做法对不对？   对（ 1） 不对（2 ）
34,2,1,7,common,11.794,18.张三、李四、王五三个人比体重，三人体重各不相同，已知王五是最轻的，那么张三与李四两人有一个是体重最重的，这个说法对不对？   对（1 ） 不对（ 2）
34,2,2,7,legal,16.854,28.刘某种植西瓜，收获季节病故。好友刁某联系不上刘某家人，便为刘某办理后事，并将西瓜卖出。事后刁某认为自己应得劳务费5000元。“刁某可以请求刘某家人支付劳务费5000元。”  可以（1 ） 不可以（2 ）
34,2,1,8,moral,7.356,9.小张是游泳健将，看到公园里有人失足跌下湖里，于是赶紧下水救人，请问小张的做法对不对？           对（1 ）  不对（2 ）
34,2,1,8,common,8.726,19.小刘与小张、小李三人比赛唱歌，小刘得了第一名，请问小刘赢了小张，这个说法对不对？           对（ 1） 不对（2 ）
34,2,1,8,legal,10.423,29.甲忘带钥匙，邻居乙建议甲从自家阳台爬回家，并提供绳索以备不测。甲在攀越时绳索断裂，坠地受伤。“法院能否酌情让乙承担部分赔偿责任”   能（1 ） 不能（2 ）
34,2,2,9,moral,17.212,10.小明看到好朋友李四最近与王五走得很近，于是嫉妒王五，就在背后说王五的坏话。请问小明的做法应不应该？  应该（ ） 不应该（ ）
34,2,1,9,common,15.314,20.假设小明家热水沸腾的温度是100摄氏度，现在小明正在烧水，水沸腾了，请问此时水温度达到100摄氏度，这个说法对不对？              对（1 ）  不对（2 ）
34,2,2,9,legal,7.222,30.甲与乙结婚3年后，乙提出甲婚前谎称是海归博士且有车有房，乙婚后发现上当受骗并向法院请求确认婚姻无效。“乙的理由可以成立。”        可以（ 1） 不可以（2 ）
35,2,1,1,moral,15.167,"1.小王开车下班回家的路上邻居小孩因腹痛倒地,小王应该不应该送小回家或者去医院?                             应该(1)       不应该(2)  "
35,2,2,1,common,20.418,11.小李刚刚吃过了早饭，请问小李没吃饭，对吗？                    对（1 ）  不对（2 ）
35,2,1,1,legal,23.644,21.陈某家中失火，邻居家10岁的女孩刘某呼叫邻居救火，并取自家衣物参与扑火。在救火过程中，刘某手部烧伤，花去医疗费200元，衣物损失100元。“陈某应偿付刘某300元，而非200元” 这个说法对不对？             对（1 ） 不对（2 ）
35,2,1,2,moral,8.499,2.在公车上遇到怀孕9个月的孕妇，年轻人应不应该让座？              应该（ 1） 不应该（2  )
35,2,2,2,common,36.295,12.小明刚刚跑步去了。请问小明没有脚，对吗？                       对（1 ）  不对（ 2）
35,2,2,2,legal,32.944,22.乙替甲还了800借款，并对甲说：“这800元算给你了。”甲称将来一定还给乙。事后甲还了乙500元。后二人交恶，乙要求甲归还300元，甲认为乙已将800元给了自己于是要求乙退回500元。“甲无需再还300元”，这个说法对不对？  对（1 ） 不对（2 ）
35,2,1,3,moral,10.068,3． 小王捡到他人遗失的钱包后归还给失主，请问小王做的对不对？     对（1 ） 不对（ 2）
35,2,2,3,common,16.135,13.张三高度近视达900度，现在正在打乒乓球。请问张三没有戴眼镜对吗？  对（ 1） 不对（2 ）
35,2,1,3,legal,46.56,23.完全不能辨认自己行为的精神病人甲将自己的手表丢向路边，被乙拾得。 “乙应将手表还给甲” ，这个说法对不对？  对（1 ） 不对（2 ）
35,2,2,4,common,16.865,14.李四是土生土长的东北人，正在用家乡话给家人打电话。请问李四是不是在说闽南话？                   是（1 ） 不是（2 ）
35,2,1,4,moral,13.003,5.张三非常富有，看到汶川地震死了很多人，于是向灾区捐了款。请问张三的做法对不对？                   对（ 1） 不对（2 ）
35,2,1,5,common,23.462,15.小花、小明、小张三人进行100跑步决赛，小花跑了第三，那么小明不是第一名就是第二名，这个说法对不对？  对（1 ） 不对（2 ）
35,2,1,4,legal,31.172,25.甲将300本书送给乙，并约定乙不得转让给第三人，否则甲有权收回书。其后甲向乙交付了300本书。 “甲与乙的赠与合同有效，乙取得了书的所有权” ，这个说法对不对？     对（ 1） 不对（2 ）
35,2,1,6,common,18.936,16.小张昨天对小明承诺：“如果明天天不下雨，我就带你去听音乐会。”今天他们两都去听音乐会了，请问今天没有下雨，这个说法对不对？    对（1 ） 不对（2 ）
35,2,2,5,legal,42.248,26.周某从某4S店买了1辆车，约定试用10天，试用期满后办理过户手续。试用期间，周某违反交规将李某撞成重伤。现周某无力赔偿。李某能否要求4S店赔偿？能(  1 )  不能(2   )
35,2,1,7,common,24.894,7.小李看到好朋友王五和黑社会接触，并参与打群架，于是就劝阻王五继续与黑社会接触。请问小李的做法对不对？  对（1 ） 不对（2 ）
35,2,1,6,legal,19.463,27. 潘某与刘某相约出游，潘某在长江边拾得一块奇石，爱不释手，拟带回家。刘某说，《物权法》规定河流属于国家所有，这一行为可能属于侵占国家财产。“潘某可以取得奇石的所有权。”这个说法对不对 ？          对（1 ） 不对（2 ）
35,2,1,8,common,18.511,18.张三、李四、王五三个人比体重，三人体重各不相同，已知王五是最轻的，那么张三与李四两人有一个是体重最重的，这个说法对不对？   对（1 ） 不对（ 2）
35,2,1,5,moral,16.108,9.小张是游泳健将，看到公园里有人失足跌下湖里，于是赶紧下水救人，请问小张的做法对不对？           对（1 ）  不对（2 ）
35,2,1,9,common,18.503,19.小刘与小张、小李三人比赛唱歌，小刘得了第一名，请问小刘赢了小张，这个说法对不对？           对（ 1） 不对（2 ）
35,2,1,7,legal,15.432,29.甲忘带钥匙，邻居乙建议甲从自家阳台爬回家，并提供绳索以备不测。甲在攀越时绳索断裂，坠地受伤。“法院能否酌情让乙承担部分赔偿责任”   能（1 ） 不能（2 ）
35,2,2,6,moral,17.863,10.小明看到好朋友李四最近与王五走得很近，于是嫉妒王五，就在背后说王五的坏话。请问小明的做法应不应该？  应该（ ） 不应该（ ）
35,2,2,8,legal,20.023,30.甲与乙结婚3年后，乙提出甲婚前谎称是海归博士且有车有房，乙婚后发现上当受骗并向法院请求确认婚姻无效。“乙的理由可以成立。”        可以（ 1） 不可以（2 ）
36,2,1,1,moral,21.344,"1.小王开车下班回家的路上邻居小孩因腹痛倒地,小王应该不应该送小回家或者去医院?                             应该(1)       不应该(2)  "
36,2,2,1,common,6.278,11.小李刚刚吃过了早饭，请问小李没吃饭，对吗？                    对（1 ）  不对（2 ）
36,2,1,1,legal,24.282,21.陈某家中失火，邻居家10岁的女孩刘某呼叫邻居救火，并取自家衣物参与扑火。在救火过程中，刘某手部烧伤，花去医疗费200元，衣物损失100元。“陈某应偿付刘某300元，而非200元” 这个说法对不对？             对（1 ） 不对（2 ）
36,2,1,2,moral,5.4,2.在公车上遇到怀孕9个月的孕妇，年轻人应不应该让座？              应该（ 1） 不应该（2  )
36,2,2,2,common,3.57,12.小明刚刚跑步去了。请问小明没有脚，对吗？                       对（1 ）  不对（ 2）
36,2,2,2,legal,27.51,22.乙替甲还了800借款，并对甲说：“这800元算给你了。”甲称将来一定还给乙。事后甲还了乙500元。后二人交恶，乙要求甲归还300元，甲认为乙已将800元给了自己于是要求乙退回500元。“甲无需再还300元”，这个说法对不对？  对（1 ） 不对（2 ）
36,2,1,3,moral,5.063,3． 小王捡到他人遗失的钱包后归还给失主，请问小王做的对不对？     对（1 ） 不对（ 2）
36,2,2,3,common,4.551,13.张三高度近视达900度，现在正在打乒乓球。请问张三没有戴眼镜对吗？  对（ 1） 不对（2 ）
36,2,1,3,legal,7.788,23.完全不能辨认自己行为的精神病人甲将自己的手表丢向路边，被乙拾得。 “乙应将手表还给甲” ，这个说法对不对？  对（1 ） 不对（2 ）
36,2,2,4,common,22.547,14.李四是土生土长的东北人，正在用家乡话给家人打电话。请问李四是不是在说闽南话？                   是（1 ） 不是（2 ）
36,2,1,4,legal,17.279,24.甲在乙承包的水库游泳，乙的雇工丙、丁误以为甲在偷鱼，于是将甲打伤。 “只能由乙承担赔偿责任，丙丁无需承担” ，这个说法对不对？   对（ 1） 不对（2 ）
36,2,1,4,moral,0.052,5.张三非常富有，看到汶川地震死了很多人，于是向灾区捐了款。请问张三的做法对不对？                   对（ 1） 不对（2 ）
36,2,1,5,common,12.016,15.小花、小明、小张三人进行100跑步决赛，小花跑了第三，那么小明不是第一名就是第二名，这个说法对不对？  对（1 ） 不对（2 ）
36,2,1,5,legal,21.77,25.甲将300本书送给乙，并约定乙不得转让给第三人，否则甲有权收回书。其后甲向乙交付了300本书。 “甲与乙的赠与合同有效，乙取得了书的所有权” ，这个说法对不对？     对（ 1） 不对（2 ）
36,2,1,5,moral,13.11,6.李四家住农村，在路边看到流浪猫很可怜，于是把猫带回家喂养。请问李四的做法对不对？                 对（ 1） 不对（2 ）
36,2,1,6,common,19.981,16.小张昨天对小明承诺：“如果明天天不下雨，我就带你去听音乐会。”今天他们两都去听音乐会了，请问今天没有下雨，这个说法对不对？    对（1 ） 不对（2 ）
36,2,2,6,legal,16.402,26.周某从某4S店买了1辆车，约定试用10天，试用期满后办理过户手续。试用期间，周某违反交规将李某撞成重伤。现周某无力赔偿。李某能否要求4S店赔偿？能(  1 )  不能(2   )
36,2,1,6,moral,9.506,7.小李看到好朋友王五和黑社会接触，并参与打群架，于是就劝阻王五继续与黑社会接触。请问小李的做法对不对？  对（1 ） 不对（2 ）
36,2,1,7,legal,22.64,27. 潘某与刘某相约出游，潘某在长江边拾得一块奇石，爱不释手，拟带回家。刘某说，《物权法》规定河流属于国家所有，这一行为可能属于侵占国家财产。“潘某可以取得奇石的所有权。”这个说法对不对 ？          对（1 ） 不对（2 ）
36,2,1,7,moral,6.073,8.小明看到歹徒行凶抢劫，于是打电话报警。请问小明的做法对不对？   对（ 1） 不对（2 ）
36,2,1,7,common,29.159,18.张三、李四、王五三个人比体重，三人体重各不相同，已知王五是最轻的，那么张三与李四两人有一个是体重最重的，这个说法对不对？   对（1 ） 不对（ 2）
36,2,2,8,legal,14.596,28.刘某种植西瓜，收获季节病故。好友刁某联系不上刘某家人，便为刘某办理后事，并将西瓜卖出。事后刁某认为自己应得劳务费5000元。“刁某可以请求刘某家人支付劳务费5000元。”  可以（1 ） 不可以（2 ）
36,2,1,8,moral,11.958,9.小张是游泳健将，看到公园里有人失足跌下湖里，于是赶紧下水救人，请问小张的做法对不对？           对（1 ）  不对（2 ）
36,2,1,8,common,12.564,19.小刘与小张、小李三人比赛唱歌，小刘得了第一名，请问小刘赢了小张，这个说法对不对？           对（ 1） 不对（2 ）
36,2,1,9,legal,14.008,29.甲忘带钥匙，邻居乙建议甲从自家阳台爬回家，并提供绳索以备不测。甲在攀越时绳索断裂，坠地受伤。“法院能否酌情让乙承担部分赔偿责任”   能（1 ） 不能（2 ）
36,2,1,9,common,11.406,20.假设小明家热水沸腾的温度是100摄氏度，现在小明正在烧水，水沸腾了，请问此时水温度达到100摄氏度，这个说法对不对？              对（1 ）  不对（2 ）
36,2,2,10,legal,9.185,30.甲与乙结婚3年后，乙提出甲婚前谎称是海归博士且有车有房，乙婚后发现上当受骗并向法院请求确认婚姻无效。“乙的理由可以成立。”        可以（ 1） 不可以（2 ）
37,2,1,1,moral,6.058,"1.小王开车下班回家的路上邻居小孩因腹痛倒地,小王应该不应该送小回家或者去医院?                             应该(1)       不应该(2)  "
37,2,1,1,legal,16.113,21.陈某家中失火，邻居家10岁的女孩刘某呼叫邻居救火，并取自家衣物参与扑火。在救火过程中，刘某手部烧伤，花去医疗费200元，衣物损失100元。“陈某应偿付刘某300元，而非200元” 这个说法对不对？             对（1 ） 不对（2 ）
37,2,1,2,moral,2.893,2.在公车上遇到怀孕9个月的孕妇，年轻人应不应该让座？              应该（ 1） 不应该（2  )
37,2,2,1,common,8.878,12.小明刚刚跑步去了。请问小明没有脚，对吗？                       对（1 ）  不对（ 2）
37,2,2,2,legal,41.121,22.乙替甲还了800借款，并对甲说：“这800元算给你了。”甲称将来一定还给乙。事后甲还了乙500元。后二人交恶，乙要求甲归还300元，甲认为乙已将800元给了自己于是要求乙退回500元。“甲无需再还300元”，这个说法对不对？  对（1 ） 不对（2 ）
37,2,1,3,moral,3.493,3． 小王捡到他人遗失的钱包后归还给失主，请问小王做的对不对？     对（1 ） 不对（ 2）
37,2,2,2,common,14.069,13.张三高度近视达900度，现在正在打乒乓球。请问张三没有戴眼镜对吗？  对（ 1） 不对（2 ）
37,2,1,3,legal,10.869,23.完全不能辨认自己行为的精神病人甲将自己的手表丢向路边，被乙拾得。 “乙应将手表还给甲” ，这个说法对不对？  对（1 ） 不对（2 ）
37,2,2,3,common,15.101,14.李四是土生土长的东北人，正在用家乡话给家人打电话。请问李四是不是在说闽南话？                   是（1 ） 不是（2 ）
37,2,1,4,legal,38.065,24.甲在乙承包的水库游泳，乙的雇工丙、丁误以为甲在偷鱼，于是将甲打伤。 “只能由乙承担赔偿责任，丙丁无需承担” ，这个说法对不对？   对（ 1） 不对（2 ）
37,2,1,4,moral,7.571,5.张三非常富有，看到汶川地震死了很多人，于是向灾区捐了款。请问张三的做法对不对？                   对（ 1） 不对（2 ）
37,2,1,4,common,11.077,15.小花、小明、小张三人进行100跑步决赛，小花跑了第三，那么小明不是第一名就是第二名，这个说法对不对？  对（1 ） 不对（2 ）
37,2,1,5,legal,17.526,25.甲将300本书送给乙，并约定乙不得转让给第三人，否则甲有权收回书。其后甲向乙交付了300本书。 “甲与乙的赠与合同有效，乙取得了书的所有权” ，这个说法对不对？     对（ 1） 不对（2 ）
37,2,1,5,moral,6.456,6.李四家住农村，在路边看到流浪猫很可怜，于是把猫带回家喂养。请问李四的做法对不对？                 对（ 1） 不对（2 ）
37,2,1,5,common,20.086,16.小张昨天对小明承诺：“如果明天天不下雨，我就带你去听音乐会。”今天他们两都去听音乐会了，请问今天没有下雨，这个说法对不对？    对（1 ） 不对（2 ）
37,2,2,6,legal,25.807,26.周某从某4S店买了1辆车，约定试用10天，试用期满后办理过户手续。试用期间，周某违反交规将李某撞成重伤。现周某无力赔偿。李某能否要求4S店赔偿？能(  1 )  不能(2   )
37,2,1,6,moral,7.374,7.小李看到好朋友王五和黑社会接触，并参与打群架，于是就劝阻王五继续与黑社会接触。请问小李的做法对不对？  对（1 ） 不对（2 ）
37,2,1,7,legal,16.653,27. 潘某与刘某相约出游，潘某在长江边拾得一块奇石，爱不释手，拟带回家。刘某说，《物权法》规定河流属于国家所有，这一行为可能属于侵占国家财产。“潘某可以取得奇石的所有权。”这个说法对不对 ？          对（1 ） 不对（2 ）
37,2,1,7,moral,4.403,8.小明看到歹徒行凶抢劫，于是打电话报警。请问小明的做法对不对？   对（ 1） 不对（2 ）
37,2,1,6,common,11.35,18.张三、李四、王五三个人比体重，三人体重各不相同，已知王五是最轻的，那么张三与李四两人有一个是体重最重的，这个说法对不对？   对（1 ） 不对（ 2）
37,2,2,8,legal,18.372,28.刘某种植西瓜，收获季节病故。好友刁某联系不上刘某家人，便为刘某办理后事，并将西瓜卖出。事后刁某认为自己应得劳务费5000元。“刁某可以请求刘某家人支付劳务费5000元。”  可以（1 ） 不可以（2 ）
37,2,1,8,moral,6.083,9.小张是游泳健将，看到公园里有人失足跌下湖里，于是赶紧下水救人，请问小张的做法对不对？           对（1 ）  不对（2 ）
37,2,1,7,common,11.209,19.小刘与小张、小李三人比赛唱歌，小刘得了第一名，请问小刘赢了小张，这个说法对不对？           对（ 1） 不对（2 ）
37,2,1,9,legal,8.085,29.甲忘带钥匙，邻居乙建议甲从自家阳台爬回家，并提供绳索以备不测。甲在攀越时绳索断裂，坠地受伤。“法院能否酌情让乙承担部分赔偿责任”   能（1 ） 不能（2 ）
37,2,2,9,moral,19.834,10.小明看到好朋友李四最近与王五走得很近，于是嫉妒王五，就在背后说王五的坏话。请问小明的做法应不应该？  应该（ ） 不应该（ ）
37,2,1,8,common,8.853,20.假设小明家热水沸腾的温度是100摄氏度，现在小明正在烧水，水沸腾了，请问此时水温度达到100摄氏度，这个说法对不对？              对（1 ）  不对（2 ）
38,2,1,1,moral,8.661,"1.小王开车下班回家的路上邻居小孩因腹痛倒地,小王应该不应该送小回家或者去医院?                             应该(1)       不应该(2)  "
38,2,2,1,common,8.322,11.小李刚刚吃过了早饭，请问小李没吃饭，对吗？                    对（1 ）  不对（2 ）
38,2,1,2,moral,6.443,2.在公车上遇到怀孕9个月的孕妇，年轻人应不应该让座？              应该（ 1） 不应该（2  )
38,2,2,2,common,6.146,12.小明刚刚跑步去了。请问小明没有脚，对吗？                       对（1 ）  不对（ 2）
38,2,2,1,legal,20.045,22.乙替甲还了800借款，并对甲说：“这800元算给你了。”甲称将来一定还给乙。事后甲还了乙500元。后二人交恶，乙要求甲归还300元，甲认为乙已将800元给了自己于是要求乙退回500元。“甲无需再还300元”，这个说法对不对？  对（1 ） 不对（2 ）
38,2,1,3,moral,6.4,3． 小王捡到他人遗失的钱包后归还给失主，请问小王做的对不对？     对（1 ） 不对（ 2）
38,2,2,3,common,11.289,13.张三高度近视达900度，现在正在打乒乓球。请问张三没有戴眼镜对吗？  对（ 1） 不对（2 ）
38,2,1,2,legal,16.226,23.完全不能辨认自己行为的精神病人甲将自己的手表丢向路边，被乙拾得。 “乙应将手表还给甲” ，这个说法对不对？  对（1 ） 不对（2 ）
38,2,2,4,common,17.334,14.李四是土生土长的东北人，正在用家乡话给家人打电话。请问李四是不是在说闽南话？                   是（1 ） 不是（2 ）
38,2,1,3,legal,8.728,24.甲在乙承包的水库游泳，乙的雇工丙、丁误以为甲在偷鱼，于是将甲打伤。 “只能由乙承担赔偿责任，丙丁无需承担” ，这个说法对不对？   对（ 1） 不对（2 ）
38,2,1,4,moral,4.402,5.张三非常富有，看到汶川地震死了很多人，于是向灾区捐了款。请问张三的做法对不对？                   对（ 1） 不对（2 ）
38,2,1,5,common,13.813,15.小花、小明、小张三人进行100跑步决赛，小花跑了第三，那么小明不是第一名就是第二名，这个说法对不对？  对（1 ） 不对（2 ）
38,2,1,4,legal,23.414,25.甲将300本书送给乙，并约定乙不得转让给第三人，否则甲有权收回书。其后甲向乙交付了300本书。 “甲与乙的赠与合同有效，乙取得了书的所有权” ，这个说法对不对？     对（ 1） 不对（2 ）
38,2,1,5,moral,5.967,6.李四家住农村，在路边看到流浪猫很可怜，于是把猫带回家喂养。请问李四的做法对不对？                 对（ 1） 不对（2 ）
38,2,1,6,common,10.802,16.小张昨天对小明承诺：“如果明天天不下雨，我就带你去听音乐会。”今天他们两都去听音乐会了，请问今天没有下雨，这个说法对不对？    对（1 ） 不对（2 ）
38,2,2,5,legal,12.766,26.周某从某4S店买了1辆车，约定试用10天，试用期满后办理过户手续。试用期间，周某违反交规将李某撞成重伤。现周某无力赔偿。李某能否要求4S店赔偿？能(  1 )  不能(2   )
38,2,1,6,moral,10.251,7.小李看到好朋友王五和黑社会接触，并参与打群架，于是就劝阻王五继续与黑社会接触。请问小李的做法对不对？  对（1 ） 不对（2 ）
38,2,1,6,legal,9.885,27. 潘某与刘某相约出游，潘某在长江边拾得一块奇石，爱不释手，拟带回家。刘某说，《物权法》规定河流属于国家所有，这一行为可能属于侵占国家财产。“潘某可以取得奇石的所有权。”这个说法对不对 ？          对（1 ） 不对（2 ）
38,2,1,7,common,12.005,18.张三、李四、王五三个人比体重，三人体重各不相同，已知王五是最轻的，那么张三与李四两人有一个是体重最重的，这个说法对不对？   对（1 ） 不对（ 2）
38,2,2,7,legal,18.759,28.刘某种植西瓜，收获季节病故。好友刁某联系不上刘某家人，便为刘某办理后事，并将西瓜卖出。事后刁某认为自己应得劳务费5000元。“刁某可以请求刘某家人支付劳务费5000元。”  可以（1 ） 不可以（2 ）
38,2,1,7,moral,5.879,9.小张是游泳健将，看到公园里有人失足跌下湖里，于是赶紧下水救人，请问小张的做法对不对？           对（1 ）  不对（2 ）
38,2,1,8,common,9.325,19.小刘与小张、小李三人比赛唱歌，小刘得了第一名，请问小刘赢了小张，这个说法对不对？           对（ 1） 不对（2 ）
38,2,1,8,legal,7.669,29.甲忘带钥匙，邻居乙建议甲从自家阳台爬回家，并提供绳索以备不测。甲在攀越时绳索断裂，坠地受伤。“法院能否酌情让乙承担部分赔偿责任”   能（1 ） 不能（2 ）
38,2,2,8,moral,5.603,10.小明看到好朋友李四最近与王五走得很近，于是嫉妒王五，就在背后说王五的坏话。请问小明的做法应不应该？  应该（ ） 不应该（ ）
38,2,1,9,common,13.421,20.假设小明家热水沸腾的温度是100摄氏度，现在小明正在烧水，水沸腾了，请问此时水温度达到100摄氏度，这个说法对不对？              对（1 ）  不对（2 ）
38,2,2,9,legal,11.51,30.甲与乙结婚3年后，乙提出甲婚前谎称是海归博士且有车有房，乙婚后发现上当受骗并向法院请求确认婚姻无效。“乙的理由可以成立。”        可以（ 1） 不可以（2 ）
39,2,1,1,moral,8.858,"1.小王开车下班回家的路上邻居小孩因腹痛倒地,小王应该不应该送小回家或者去医院?                             应该(1)       不应该(2)  "
39,2,2,1,common,10.022,11.小李刚刚吃过了早饭，请问小李没吃饭，对吗？                    对（1 ）  不对（2 ）
39,2,1,1,legal,14.411,21.陈某家中失火，邻居家10岁的女孩刘某呼叫邻居救火，并取自家衣物参与扑火。在救火过程中，刘某手部烧伤，花去医疗费200元，衣物损失100元。“陈某应偿付刘某300元，而非200元” 这个说法对不对？             对（1 ） 不对（2 ）
39,2,1,2,moral,4.125,2.在公车上遇到怀孕9个月的孕妇，年轻人应不应该让座？              应该（ 1） 不应该（2  )
39,2,2,2,common,4.715,12.小明刚刚跑步去了。请问小明没有脚，对吗？                       对（1 ）  不对（ 2）
39,2,2,2,legal,14.984,22.乙替甲还了800借款，并对甲说：“这800元算给你了。”甲称将来一定还给乙。事后甲还了乙500元。后二人交恶，乙要求甲归还300元，甲认为乙已将800元给了自己于是要求乙退回500元。“甲无需再还300元”，这个说法对不对？  对（1 ） 不对（2 ）
39,2,1,3,moral,6.201,3． 小王捡到他人遗失的钱包后归还给失主，请问小王做的对不对？     对（1 ） 不对（ 2）
39,2,2,3,common,6.762,13.张三高度近视达900度，现在正在打乒乓球。请问张三没有戴眼镜对吗？  对（ 1） 不对（2 ）
39,2,2,4,common,7.419,14.李四是土生土长的东北人，正在用家乡话给家人打电话。请问李四是不是在说闽南话？                   是（1 ） 不是（2 ）
39,2,1,3,legal,13.963,24.甲在乙承包的水库游泳，乙的雇工丙、丁误以为甲在偷鱼，于是将甲打伤。 “只能由乙承担赔偿责任，丙丁无需承担” ，这个说法对不对？   对（ 1） 不对（2 ）
39,2,1,4,moral,4.526,5.张三非常富有，看到汶川地震死了很多人，于是向灾区捐了款。请问张三的做法对不对？                   对（ 1） 不对（2 ）
39,2,1,5,common,13.004,15.小花、小明、小张三人进行100跑步决赛，小花跑了第三，那么小明不是第一名就是第二名，这个说法对不对？  对（1 ） 不对（2 ）
39,2,1,4,legal,26.63,25.甲将300本书送给乙，并约定乙不得转让给第三人，否则甲有权收回书。其后甲向乙交付了300本书。 “甲与乙的赠与合同有效，乙取得了书的所有权” ，这个说法对不对？     对（ 1） 不对（2 ）
39,2,1,5,moral,7.548,6.李四家住农村，在路边看到流浪猫很可怜，于是把猫带回家喂养。请问李四的做法对不对？                 对（ 1） 不对（2 ）
39,2,1,6,common,11.734,16.小张昨天对小明承诺：“如果明天天不下雨，我就带你去听音乐会。”今天他们两都去听音乐会了，请问今天没有下雨，这个说法对不对？    对（1 ） 不对（2 ）
39,2,2,5,legal,21.324,26.周某从某4S店买了1辆车，约定试用10天，试用期满后办理过户手续。试用期间，周某违反交规将李某撞成重伤。现周某无力赔偿。李某能否要求4S店赔偿？能(  1 )  不能(2   )
39,2,1,6,legal,16.161,27. 潘某与刘某相约出游，潘某在长江边拾得一块奇石，爱不释手，拟带回家。刘某说，《物权法》规定河流属于国家所有，这一行为可能属于侵占国家财产。“潘某可以取得奇石的所有权。”这个说法对不对 ？          对（1 ） 不对（2 ）
39,2,1,6,moral,5.059,8.小明看到歹徒行凶抢劫，于是打电话报警。请问小明的做法对不对？   对（ 1） 不对（2 ）
39,2,1,7,common,19.579,18.张三、李四、王五三个人比体重，三人体重各不相同，已知王五是最轻的，那么张三与李四两人有一个是体重最重的，这个说法对不对？   对（1 ） 不对（ 2）
39,2,2,7,legal,20.296,28.刘某种植西瓜，收获季节病故。好友刁某联系不上刘某家人，便为刘某办理后事，并将西瓜卖出。事后刁某认为自己应得劳务费5000元。“刁某可以请求刘某家人支付劳务费5000元。”  可以（1 ） 不可以（2 ）
39,2,1,7,moral,5.745,9.小张是游泳健将，看到公园里有人失足跌下湖里，于是赶紧下水救人，请问小张的做法对不对？           对（1 ）  不对（2 ）
39,2,1,8,common,12.357,19.小刘与小张、小李三人比赛唱歌，小刘得了第一名，请问小刘赢了小张，这个说法对不对？           对（ 1） 不对（2 ）
39,2,1,8,legal,13.874,29.甲忘带钥匙，邻居乙建议甲从自家阳台爬回家，并提供绳索以备不测。甲在攀越时绳索断裂，坠地受伤。“法院能否酌情让乙承担部分赔偿责任”   能（1 ） 不能（2 ）
39,2,2,8,moral,6.049,10.小明看到好朋友李四最近与王五走得很近，于是嫉妒王五，就在背后说王五的坏话。请问小明的做法应不应该？  应该（ ） 不应该（ ）
39,2,1,9,common,7.825,20.假设小明家热水沸腾的温度是100摄氏度，现在小明正在烧水，水沸腾了，请问此时水温度达到100摄氏度，这个说法对不对？              对（1 ）  不对（2 ）
39,2,2,9,legal,14.455,30.甲与乙结婚3年后，乙提出甲婚前谎称是海归博士且有车有房，乙婚后发现上当受骗并向法院请求确认婚姻无效。“乙的理由可以成立。”        可以（ 1） 不可以（2 ）
40,2,1,1,moral,8.64,"1.小王开车下班回家的路上邻居小孩因腹痛倒地,小王应该不应该送小回家或者去医院?                             应该(1)       不应该(2)  "
40,2,2,1,common,18.853,11.小李刚刚吃过了早饭，请问小李没吃饭，对吗？                    对（1 ）  不对（2 ）
40,2,1,1,legal,40.312,21.陈某家中失火，邻居家10岁的女孩刘某呼叫邻居救火，并取自家衣物参与扑火。在救火过程中，刘某手部烧伤，花去医疗费200元，衣物损失100元。“陈某应偿付刘某300元，而非200元” 这个说法对不对？             对（1 ） 不对（2 ）
40,2,1,2,moral,3.045,2.在公车上遇到怀孕9个月的孕妇，年轻人应不应该让座？              应该（ 1） 不应该（2  )
40,2,2,2,common,8.823,12.小明刚刚跑步去了。请问小明没有脚，对吗？                       对（1 ）  不对（ 2）
40,2,2,2,legal,50.949,22.乙替甲还了800借款，并对甲说：“这800元算给你了。”甲称将来一定还给乙。事后甲还了乙500元。后二人交恶，乙要求甲归还300元，甲认为乙已将800元给了自己于是要求乙退回500元。“甲无需再还300元”，这个说法对不对？  对（1 ） 不对（2 ）
40,2,1,3,moral,2.807,3． 小王捡到他人遗失的钱包后归还给失主，请问小王做的对不对？     对（1 ） 不对（ 2）
40,2,2,3,common,7.995,13.张三高度近视达900度，现在正在打乒乓球。请问张三没有戴眼镜对吗？  对（ 1） 不对（2 ）
40,2,1,3,legal,10.475,23.完全不能辨认自己行为的精神病人甲将自己的手表丢向路边，被乙拾得。 “乙应将手表还给甲” ，这个说法对不对？  对（1 ） 不对（2 ）
40,2,2,4,common,10.415,14.李四是土生土长的东北人，正在用家乡话给家人打电话。请问李四是不是在说闽南话？                   是（1 ） 不是（2 ）
40,2,1,4,legal,23.187,24.甲在乙承包的水库游泳，乙的雇工丙、丁误以为甲在偷鱼，于是将甲打伤。 “只能由乙承担赔偿责任，丙丁无需承担” ，这个说法对不对？   对（ 1） 不对（2 ）
40,2,1,4,moral,4.269,5.张三非常富有，看到汶川地震死了很多人，于是向灾区捐了款。请问张三的做法对不对？                   对（ 1） 不对（2 ）
40,2,1,5,common,7.686,15.小花、小明、小张三人进行100跑步决赛，小花跑了第三，那么小明不是第一名就是第二名，这个说法对不对？  对（1 ） 不对（2 ）
40,2,1,5,legal,21.178,25.甲将300本书送给乙，并约定乙不得转让给第三人，否则甲有权收回书。其后甲向乙交付了300本书。 “甲与乙的赠与合同有效，乙取得了书的所有权” ，这个说法对不对？     对（ 1） 不对（2 ）
40,2,1,5,moral,5.542,6.李四家住农村，在路边看到流浪猫很可怜，于是把猫带回家喂养。请问李四的做法对不对？                 对（ 1） 不对（2 ）
40,2,1,6,common,9.498,16.小张昨天对小明承诺：“如果明天天不下雨，我就带你去听音乐会。”今天他们两都去听音乐会了，请问今天没有下雨，这个说法对不对？    对（1 ） 不对（2 ）
40,2,2,6,legal,27.028,26.周某从某4S店买了1辆车，约定试用10天，试用期满后办理过户手续。试用期间，周某违反交规将李某撞成重伤。现周某无力赔偿。李某能否要求4S店赔偿？能(  1 )  不能(2   )
40,2,1,6,moral,12.337,7.小李看到好朋友王五和黑社会接触，并参与打群架，于是就劝阻王五继续与黑社会接触。请问小李的做法对不对？  对（1 ） 不对（2 ）
40,2,1,7,legal,25.879,27. 潘某与刘某相约出游，潘某在长江边拾得一块奇石，爱不释手，拟带回家。刘某说，《物权法》规定河流属于国家所有，这一行为可能属于侵占国家财产。“潘某可以取得奇石的所有权。”这个说法对不对 ？          对（1 ） 不对（2 ）
40,2,1,7,moral,4.619,8.小明看到歹徒行凶抢劫，于是打电话报警。请问小明的做法对不对？   对（ 1） 不对（2 ）
40,2,1,7,common,9.549,18.张三、李四、王五三个人比体重，三人体重各不相同，已知王五是最轻的，那么张三与李四两人有一个是体重最重的，这个说法对不对？   对（1 ） 不对（ 2）
40,2,2,8,legal,39.292,28.刘某种植西瓜，收获季节病故。好友刁某联系不上刘某家人，便为刘某办理后事，并将西瓜卖出。事后刁某认为自己应得劳务费5000元。“刁某可以请求刘某家人支付劳务费5000元。”  可以（1 ） 不可以（2 ）
40,2,1,8,moral,5.963,9.小张是游泳健将，看到公园里有人失足跌下湖里，于是赶紧下水救人，请问小张的做法对不对？           对（1 ）  不对（2 ）
40,2,1,8,common,5.862,19.小刘与小张、小李三人比赛唱歌，小刘得了第一名，请问小刘赢了小张，这个说法对不对？           对（ 1） 不对（2 ）
40,2,1,9,legal,19.517,29.甲忘带钥匙，邻居乙建议甲从自家阳台爬回家，并提供绳索以备不测。甲在攀越时绳索断裂，坠地受伤。“法院能否酌情让乙承担部分赔偿责任”   能（1 ） 不能（2 ）
40,2,2,9,moral,8.813,10.小明看到好朋友李四最近与王五走得很近，于是嫉妒王五，就在背后说王五的坏话。请问小明的做法应不应该？  应该（ ） 不应该（ ）
40,2,1,9,common,5.54,20.假设小明家热水沸腾的温度是100摄氏度，现在小明正在烧水，水沸腾了，请问此时水温度达到100摄氏度，这个说法对不对？              对（1 ）  不对（2 ）
40,2,2,10,legal,12.511,30.甲与乙结婚3年后，乙提出甲婚前谎称是海归博士且有车有房，乙婚后发现上当受骗并向法院请求确认婚姻无效。“乙的理由可以成立。”        可以（ 1） 不可以（2 ）
41,2,1,1,moral,8.67,"1.小王开车下班回家的路上邻居小孩因腹痛倒地,小王应该不应该送小回家或者去医院?                             应该(1)       不应该(2)  "
41,2,2,1,common,6.395,11.小李刚刚吃过了早饭，请问小李没吃饭，对吗？                    对（1 ）  不对（2 ）
41,2,1,1,legal,30.851,21.陈某家中失火，邻居家10岁的女孩刘某呼叫邻居救火，并取自家衣物参与扑火。在救火过程中，刘某手部烧伤，花去医疗费200元，衣物损失100元。“陈某应偿付刘某300元，而非200元” 这个说法对不对？             对（1 ） 不对（2 ）
41,2,1,2,moral,2.604,2.在公车上遇到怀孕9个月的孕妇，年轻人应不应该让座？              应该（ 1） 不应该（2  )
41,2,2,2,common,5.52,12.小明刚刚跑步去了。请问小明没有脚，对吗？                       对（1 ）  不对（ 2）
41,2,2,2,legal,71.756,22.乙替甲还了800借款，并对甲说：“这800元算给你了。”甲称将来一定还给乙。事后甲还了乙500元。后二人交恶，乙要求甲归还300元，甲认为乙已将800元给了自己于是要求乙退回500元。“甲无需再还300元”，这个说法对不对？  对（1 ） 不对（2 ）
41,2,1,3,moral,4.939,3． 小王捡到他人遗失的钱包后归还给失主，请问小王做的对不对？     对（1 ） 不对（ 2）
41,2,2,3,common,9.992,13.张三高度近视达900度，现在正在打乒乓球。请问张三没有戴眼镜对吗？  对（ 1） 不对（2 ）
41,2,1,3,legal,5.67,23.完全不能辨认自己行为的精神病人甲将自己的手表丢向路边，被乙拾得。 “乙应将手表还给甲” ，这个说法对不对？  对（1 ） 不对（2 ）
41,2,2,4,common,147.838,14.李四是土生土长的东北人，正在用家乡话给家人打电话。请问李四是不是在说闽南话？                   是（1 ） 不是（2 ）
41,2,1,4,legal,8.549,24.甲在乙承包的水库游泳，乙的雇工丙、丁误以为甲在偷鱼，于是将甲打伤。 “只能由乙承担赔偿责任，丙丁无需承担” ，这个说法对不对？   对（ 1） 不对（2 ）
41,2,1,4,moral,5.086,5.张三非常富有，看到汶川地震死了很多人，于是向灾区捐了款。请问张三的做法对不对？                   对（ 1） 不对（2 ）
41,2,1,5,common,20.093,15.小花、小明、小张三人进行100跑步决赛，小花跑了第三，那么小明不是第一名就是第二名，这个说法对不对？  对（1 ） 不对（2 ）
41,2,1,5,legal,28.037,25.甲将300本书送给乙，并约定乙不得转让给第三人，否则甲有权收回书。其后甲向乙交付了300本书。 “甲与乙的赠与合同有效，乙取得了书的所有权” ，这个说法对不对？     对（ 1） 不对（2 ）
41,2,1,5,moral,5.449,6.李四家住农村，在路边看到流浪猫很可怜，于是把猫带回家喂养。请问李四的做法对不对？                 对（ 1） 不对（2 ）
41,2,1,6,common,7.713,16.小张昨天对小明承诺：“如果明天天不下雨，我就带你去听音乐会。”今天他们两都去听音乐会了，请问今天没有下雨，这个说法对不对？    对（1 ） 不对（2 ）
41,2,2,6,legal,18.524,26.周某从某4S店买了1辆车，约定试用10天，试用期满后办理过户手续。试用期间，周某违反交规将李某撞成重伤。现周某无力赔偿。李某能否要求4S店赔偿？能(  1 )  不能(2   )
41,2,1,6,moral,14.876,7.小李看到好朋友王五和黑社会接触，并参与打群架，于是就劝阻王五继续与黑社会接触。请问小李的做法对不对？  对（1 ） 不对（2 ）
41,2,1,7,legal,19.328,27. 潘某与刘某相约出游，潘某在长江边拾得一块奇石，爱不释手，拟带回家。刘某说，《物权法》规定河流属于国家所有，这一行为可能属于侵占国家财产。“潘某可以取得奇石的所有权。”这个说法对不对 ？          对（1 ） 不对（2 ）
41,2,1,7,moral,4.144,8.小明看到歹徒行凶抢劫，于是打电话报警。请问小明的做法对不对？   对（ 1） 不对（2 ）
41,2,1,7,common,7.333,18.张三、李四、王五三个人比体重，三人体重各不相同，已知王五是最轻的，那么张三与李四两人有一个是体重最重的，这个说法对不对？   对（1 ） 不对（ 2）
41,2,2,8,legal,13.856,28.刘某种植西瓜，收获季节病故。好友刁某联系不上刘某家人，便为刘某办理后事，并将西瓜卖出。事后刁某认为自己应得劳务费5000元。“刁某可以请求刘某家人支付劳务费5000元。”  可以（1 ） 不可以（2 ）
